workerid,proliferate.condition,alternative,correct,order,path,rt,trial_id,trial_no,word,word_idx,catch_trials,condition,subject_information.age,subject_information.asses,subject_information.comments,subject_information.education,subject_information.enjoyment,subject_information.fairprice,subject_information.gender,subject_information.language,subject_information.other_language,subject_information.problems,system.Browser,system.OS,system.screenH,system.screenW,time_in_minutes,error
469,list8,x-x-x,1,0,0,15857,practice_01,0,The,0,[],7,25,Yes,,3,1,$4,Female,english,,no,Chrome,Mac,900,1440,7.203733333333333,
469,list8,configured,1,0,0,3495,practice_01,0,babysitter,1,[],7,25,Yes,,3,1,$4,Female,english,,no,Chrome,Mac,900,1440,7.203733333333333,
469,list8,calm,1,1,0,1878,practice_01,0,gave,2,[],7,25,Yes,,3,1,$4,Female,english,,no,Chrome,Mac,900,1440,7.203733333333333,
469,list8,else,1,0,0,886,practice_01,0,the,3,[],7,25,Yes,,3,1,$4,Female,english,,no,Chrome,Mac,900,1440,7.203733333333333,
469,list8,announces,1,1,0,1292,practice_01,0,screaming,4,[],7,25,Yes,,3,1,$4,Female,english,,no,Chrome,Mac,900,1440,7.203733333333333,
469,list8,intends,1,0,0,841,practice_01,0,toddler,5,[],7,25,Yes,,3,1,$4,Female,english,,no,Chrome,Mac,900,1440,7.203733333333333,
469,list8,pre,1,0,0,1215,practice_01,0,a,6,[],7,25,Yes,,3,1,$4,Female,english,,no,Chrome,Mac,900,1440,7.203733333333333,
469,list8,democrats.,1,0,0,1063,practice_01,0,chocolate.,7,[],7,25,Yes,,3,1,$4,Female,english,,no,Chrome,Mac,900,1440,7.203733333333333,
469,list8,x-x-x,1,0,0,1443,practice_02,1,The,0,[],7,25,Yes,,3,1,$4,Female,english,,no,Chrome,Mac,900,1440,7.203733333333333,
469,list8,propelled,1,0,0,889,practice_02,1,lifeguard,1,[],7,25,Yes,,3,1,$4,Female,english,,no,Chrome,Mac,900,1440,7.203733333333333,
469,list8,glad,1,1,0,974,practice_02,1,kept,2,[],7,25,Yes,,3,1,$4,Female,english,,no,Chrome,Mac,900,1440,7.203733333333333,
469,list8,cent,1,0,0,1076,practice_02,1,an,3,[],7,25,Yes,,3,1,$4,Female,english,,no,Chrome,Mac,900,1440,7.203733333333333,
469,list8,kid,1,0,0,1014,practice_02,1,eye,4,[],7,25,Yes,,3,1,$4,Female,english,,no,Chrome,Mac,900,1440,7.203733333333333,
469,list8,al,1,1,0,896,practice_02,1,on,5,[],7,25,Yes,,3,1,$4,Female,english,,no,Chrome,Mac,900,1440,7.203733333333333,
469,list8,else,1,0,0,974,practice_02,1,his,6,[],7,25,Yes,,3,1,$4,Female,english,,no,Chrome,Mac,900,1440,7.203733333333333,
469,list8,none,1,0,0,2029,practice_02,1,part,7,[],7,25,Yes,,3,1,$4,Female,english,,no,Chrome,Mac,900,1440,7.203733333333333,
469,list8,sell,1,1,0,862,practice_02,1,of,8,[],7,25,Yes,,3,1,$4,Female,english,,no,Chrome,Mac,900,1440,7.203733333333333,
469,list8,yeah,1,1,0,1184,practice_02,1,the,9,[],7,25,Yes,,3,1,$4,Female,english,,no,Chrome,Mac,900,1440,7.203733333333333,
469,list8,cents,1,0,0,812,practice_02,1,beach,10,[],7,25,Yes,,3,1,$4,Female,english,,no,Chrome,Mac,900,1440,7.203733333333333,
469,list8,sir,1,0,0,1300,practice_02,1,all,11,[],7,25,Yes,,3,1,$4,Female,english,,no,Chrome,Mac,900,1440,7.203733333333333,
469,list8,god.,1,1,0,878,practice_02,1,day.,12,[],7,25,Yes,,3,1,$4,Female,english,,no,Chrome,Mac,900,1440,7.203733333333333,
469,list8,x-x-x,1,0,0,808,practice_03,2,The,0,[],7,25,Yes,,3,1,$4,Female,english,,no,Chrome,Mac,900,1440,7.203733333333333,
469,list8,its,1,1,0,943,practice_03,2,new,1,[],7,25,Yes,,3,1,$4,Female,english,,no,Chrome,Mac,900,1440,7.203733333333333,
469,list8,awesome,1,1,0,1089,practice_03,2,student,2,[],7,25,Yes,,3,1,$4,Female,english,,no,Chrome,Mac,900,1440,7.203733333333333,
469,list8,nice,1,0,0,813,practice_03,2,was,3,[],7,25,Yes,,3,1,$4,Female,english,,no,Chrome,Mac,900,1440,7.203733333333333,
469,list8,vessels,1,0,0,1382,practice_03,2,noticed,4,[],7,25,Yes,,3,1,$4,Female,english,,no,Chrome,Mac,900,1440,7.203733333333333,
469,list8,miss,1,0,0,733,practice_03,2,by,5,[],7,25,Yes,,3,1,$4,Female,english,,no,Chrome,Mac,900,1440,7.203733333333333,
469,list8,universe,1,0,0,846,practice_03,2,everyone,6,[],7,25,Yes,,3,1,$4,Female,english,,no,Chrome,Mac,900,1440,7.203733333333333,
469,list8,lots,1,1,0,755,practice_03,2,when,7,[],7,25,Yes,,3,1,$4,Female,english,,no,Chrome,Mac,900,1440,7.203733333333333,
469,list8,jack,0,1,0,2838,practice_03,2,he,8,[],7,25,Yes,,3,1,$4,Female,english,,no,Chrome,Mac,900,1440,7.203733333333333,
469,list8,ways,1,0,0,868,practice_03,2,came,9,[],7,25,Yes,,3,1,$4,Female,english,,no,Chrome,Mac,900,1440,7.203733333333333,
469,list8,fund,1,0,0,661,practice_03,2,into,10,[],7,25,Yes,,3,1,$4,Female,english,,no,Chrome,Mac,900,1440,7.203733333333333,
469,list8,cent,1,0,0,617,practice_03,2,the,11,[],7,25,Yes,,3,1,$4,Female,english,,no,Chrome,Mac,900,1440,7.203733333333333,
469,list8,sent.,1,0,0,636,practice_03,2,room.,12,[],7,25,Yes,,3,1,$4,Female,english,,no,Chrome,Mac,900,1440,7.203733333333333,
469,list8,x-x-x,1,0,1,1075,16_house_affirmative,3,Lisa,0,[],7,25,Yes,,3,1,$4,Female,english,,no,Chrome,Mac,900,1440,7.203733333333333,
469,list8,frank,1,1,1,853,16_house_affirmative,3,built,1,[],7,25,Yes,,3,1,$4,Female,english,,no,Chrome,Mac,900,1440,7.203733333333333,
469,list8,lose,1,0,1,713,16_house_affirmative,3,a,2,[],7,25,Yes,,3,1,$4,Female,english,,no,Chrome,Mac,900,1440,7.203733333333333,
469,list8,knows,1,0,1,766,16_house_affirmative,3,house,3,[],7,25,Yes,,3,1,$4,Female,english,,no,Chrome,Mac,900,1440,7.203733333333333,
469,list8,hate,1,1,1,740,16_house_affirmative,3,and,4,[],7,25,Yes,,3,1,$4,Female,english,,no,Chrome,Mac,900,1440,7.203733333333333,
469,list8,sir,1,1,1,714,16_house_affirmative,3,she,5,[],7,25,Yes,,3,1,$4,Female,english,,no,Chrome,Mac,900,1440,7.203733333333333,
469,list8,yes,1,0,1,812,16_house_affirmative,3,made,6,[],7,25,Yes,,3,1,$4,Female,english,,no,Chrome,Mac,900,1440,7.203733333333333,
469,list8,guy,1,0,1,1041,16_house_affirmative,3,sure,7,[],7,25,Yes,,3,1,$4,Female,english,,no,Chrome,Mac,900,1440,7.203733333333333,
469,list8,miss,1,0,1,621,16_house_affirmative,3,that,8,[],7,25,Yes,,3,1,$4,Female,english,,no,Chrome,Mac,900,1440,7.203733333333333,
469,list8,guess,1,0,1,708,16_house_affirmative,3,every,9,[],7,25,Yes,,3,1,$4,Female,english,,no,Chrome,Mac,900,1440,7.203733333333333,
469,list8,videos,1,1,1,723,16_house_affirmative,3,room,10,[],7,25,Yes,,3,1,$4,Female,english,,no,Chrome,Mac,900,1440,7.203733333333333,
469,list8,pre,1,1,1,896,16_house_affirmative,3,gets,11,[],7,25,Yes,,3,1,$4,Female,english,,no,Chrome,Mac,900,1440,7.203733333333333,
469,list8,dad,1,0,1,658,16_house_affirmative,3,a,12,[],7,25,Yes,,3,1,$4,Female,english,,no,Chrome,Mac,900,1440,7.203733333333333,
469,list8,yeah,1,0,1,760,16_house_affirmative,3,lot,13,[],7,25,Yes,,3,1,$4,Female,english,,no,Chrome,Mac,900,1440,7.203733333333333,
469,list8,lord,1,0,1,552,16_house_affirmative,3,of,14,[],7,25,Yes,,3,1,$4,Female,english,,no,Chrome,Mac,900,1440,7.203733333333333,
469,list8,diaspora.,1,1,1,700,16_house_affirmative,3,sunlight.,15,[],7,25,Yes,,3,1,$4,Female,english,,no,Chrome,Mac,900,1440,7.203733333333333,
469,list8,x-x-x,1,0,0,531,filler_03,4,The,0,[],7,25,Yes,,3,1,$4,Female,english,,no,Chrome,Mac,900,1440,7.203733333333333,
469,list8,investing,1,1,0,1127,filler_03,4,prisoners,1,[],7,25,Yes,,3,1,$4,Female,english,,no,Chrome,Mac,900,1440,7.203733333333333,
469,list8,jack,1,0,0,624,filler_03,4,were,2,[],7,25,Yes,,3,1,$4,Female,english,,no,Chrome,Mac,900,1440,7.203733333333333,
469,list8,exists,1,1,0,1015,filler_03,4,unable,3,[],7,25,Yes,,3,1,$4,Female,english,,no,Chrome,Mac,900,1440,7.203733333333333,
469,list8,gift,1,0,0,529,filler_03,4,to,4,[],7,25,Yes,,3,1,$4,Female,english,,no,Chrome,Mac,900,1440,7.203733333333333,
469,list8,miles,1,1,0,821,filler_03,4,cross,5,[],7,25,Yes,,3,1,$4,Female,english,,no,Chrome,Mac,900,1440,7.203733333333333,
469,list8,dad,1,1,0,978,filler_03,4,the,6,[],7,25,Yes,,3,1,$4,Female,english,,no,Chrome,Mac,900,1440,7.203733333333333,
469,list8,learn,1,0,0,740,filler_03,4,field,7,[],7,25,Yes,,3,1,$4,Female,english,,no,Chrome,Mac,900,1440,7.203733333333333,
469,list8,amazing,1,0,0,524,filler_03,4,without,8,[],7,25,Yes,,3,1,$4,Female,english,,no,Chrome,Mac,900,1440,7.203733333333333,
469,list8,sweet,1,1,0,907,filler_03,4,being,9,[],7,25,Yes,,3,1,$4,Female,english,,no,Chrome,Mac,900,1440,7.203733333333333,
469,list8,soul.,1,0,0,722,filler_03,4,seen.,10,[],7,25,Yes,,3,1,$4,Female,english,,no,Chrome,Mac,900,1440,7.203733333333333,
469,list8,x-x-x,1,0,0,484,filler_09,5,The,0,[],7,25,Yes,,3,1,$4,Female,english,,no,Chrome,Mac,900,1440,7.203733333333333,
469,list8,evaded,0,0,0,2238,filler_09,5,quilts,1,[],7,25,Yes,,3,1,$4,Female,english,,no,Chrome,Mac,900,1440,7.203733333333333,
469,list8,anti,1,1,0,833,filler_09,5,were,2,[],7,25,Yes,,3,1,$4,Female,english,,no,Chrome,Mac,900,1440,7.203733333333333,
469,list8,luck,1,1,0,1400,filler_09,5,sold,3,[],7,25,Yes,,3,1,$4,Female,english,,no,Chrome,Mac,900,1440,7.203733333333333,
469,list8,die,1,1,0,697,filler_09,5,by,4,[],7,25,Yes,,3,1,$4,Female,english,,no,Chrome,Mac,900,1440,7.203733333333333,
469,list8,why,1,1,0,858,filler_09,5,the,5,[],7,25,Yes,,3,1,$4,Female,english,,no,Chrome,Mac,900,1440,7.203733333333333,
469,list8,goes,1,1,0,2634,filler_09,5,side,6,[],7,25,Yes,,3,1,$4,Female,english,,no,Chrome,Mac,900,1440,7.203733333333333,
469,list8,sir,1,0,0,682,filler_09,5,of,7,[],7,25,Yes,,3,1,$4,Female,english,,no,Chrome,Mac,900,1440,7.203733333333333,
469,list8,yes,1,1,0,651,filler_09,5,the,8,[],7,25,Yes,,3,1,$4,Female,english,,no,Chrome,Mac,900,1440,7.203733333333333,
469,list8,lose,1,1,0,567,filler_09,5,road,9,[],7,25,Yes,,3,1,$4,Female,english,,no,Chrome,Mac,900,1440,7.203733333333333,
469,list8,hear,0,1,0,1592,filler_09,5,for,10,[],7,25,Yes,,3,1,$4,Female,english,,no,Chrome,Mac,900,1440,7.203733333333333,
469,list8,yeah,1,0,0,897,filler_09,5,ten,11,[],7,25,Yes,,3,1,$4,Female,english,,no,Chrome,Mac,900,1440,7.203733333333333,
469,list8,require.,1,0,0,800,filler_09,5,dollars.,12,[],7,25,Yes,,3,1,$4,Female,english,,no,Chrome,Mac,900,1440,7.203733333333333,
469,list8,x-x-x,1,0,0,921,filler_06,6,Several,0,[],7,25,Yes,,3,1,$4,Female,english,,no,Chrome,Mac,900,1440,7.203733333333333,
469,list8,thanksgiving,1,1,0,1083,filler_06,6,construction,1,[],7,25,Yes,,3,1,$4,Female,english,,no,Chrome,Mac,900,1440,7.203733333333333,
469,list8,greater,1,1,0,712,filler_06,6,workers,2,[],7,25,Yes,,3,1,$4,Female,english,,no,Chrome,Mac,900,1440,7.203733333333333,
469,list8,nice,1,0,0,948,filler_06,6,lost,3,[],7,25,Yes,,3,1,$4,Female,english,,no,Chrome,Mac,900,1440,7.203733333333333,
469,list8,funny,1,1,0,712,filler_06,6,their,4,[],7,25,Yes,,3,1,$4,Female,english,,no,Chrome,Mac,900,1440,7.203733333333333,
469,list8,glad,1,0,0,1387,filler_06,6,jobs,5,[],7,25,Yes,,3,1,$4,Female,english,,no,Chrome,Mac,900,1440,7.203733333333333,
469,list8,tree,1,0,0,530,filler_06,6,when,6,[],7,25,Yes,,3,1,$4,Female,english,,no,Chrome,Mac,900,1440,7.203733333333333,
469,list8,yeah,1,0,0,588,filler_06,6,the,7,[],7,25,Yes,,3,1,$4,Female,english,,no,Chrome,Mac,900,1440,7.203733333333333,
469,list8,suppose,1,0,0,973,filler_06,6,housing,8,[],7,25,Yes,,3,1,$4,Female,english,,no,Chrome,Mac,900,1440,7.203733333333333,
469,list8,latest,1,1,0,769,filler_06,6,market,9,[],7,25,Yes,,3,1,$4,Female,english,,no,Chrome,Mac,900,1440,7.203733333333333,
469,list8,nonsense.,1,1,0,873,filler_06,6,declined.,10,[],7,25,Yes,,3,1,$4,Female,english,,no,Chrome,Mac,900,1440,7.203733333333333,
469,list8,x-x-x,1,1,1,831,13_bed_negated,7,Luke,0,[],7,25,Yes,,3,1,$4,Female,english,,no,Chrome,Mac,900,1440,7.203733333333333,
469,list8,forget,0,1,1,1661,13_bed_negated,7,didn't,1,[],7,25,Yes,,3,1,$4,Female,english,,no,Chrome,Mac,900,1440,7.203733333333333,
469,list8,anti,1,0,1,770,13_bed_negated,7,buy,2,[],7,25,Yes,,3,1,$4,Female,english,,no,Chrome,Mac,900,1440,7.203733333333333,
469,list8,oh,1,0,1,841,13_bed_negated,7,a,3,[],7,25,Yes,,3,1,$4,Female,english,,no,Chrome,Mac,900,1440,7.203733333333333,
469,list8,onto,1,1,1,899,13_bed_negated,7,bed,4,[],7,25,Yes,,3,1,$4,Female,english,,no,Chrome,Mac,900,1440,7.203733333333333,
469,list8,sir,1,1,1,807,13_bed_negated,7,and,5,[],7,25,Yes,,3,1,$4,Female,english,,no,Chrome,Mac,900,1440,7.203733333333333,
469,list8,vs,1,0,1,939,13_bed_negated,7,he,6,[],7,25,Yes,,3,1,$4,Female,english,,no,Chrome,Mac,900,1440,7.203733333333333,
469,list8,pre,1,1,1,955,13_bed_negated,7,also,7,[],7,25,Yes,,3,1,$4,Female,english,,no,Chrome,Mac,900,1440,7.203733333333333,
469,list8,republic,1,1,1,1005,13_bed_negated,7,refused,8,[],7,25,Yes,,3,1,$4,Female,english,,no,Chrome,Mac,900,1440,7.203733333333333,
469,list8,gain,1,1,1,551,13_bed_negated,7,to,9,[],7,25,Yes,,3,1,$4,Female,english,,no,Chrome,Mac,900,1440,7.203733333333333,
469,list8,ago,1,1,1,683,13_bed_negated,7,get,10,[],7,25,Yes,,3,1,$4,Female,english,,no,Chrome,Mac,900,1440,7.203733333333333,
469,list8,hill,1,1,1,647,13_bed_negated,7,a,11,[],7,25,Yes,,3,1,$4,Female,english,,no,Chrome,Mac,900,1440,7.203733333333333,
469,list8,seem,1,1,1,972,13_bed_negated,7,new,12,[],7,25,Yes,,3,1,$4,Female,english,,no,Chrome,Mac,900,1440,7.203733333333333,
469,list8,opposes.,1,1,1,775,13_bed_negated,7,dresser.,13,[],7,25,Yes,,3,1,$4,Female,english,,no,Chrome,Mac,900,1440,7.203733333333333,
469,list8,x-x-x,1,1,1,907,10_hat_doubt,8,I,0,[],7,25,Yes,,3,1,$4,Female,english,,no,Chrome,Mac,900,1440,7.203733333333333,
469,list8,worse,1,1,1,567,10_hat_doubt,8,doubt,1,[],7,25,Yes,,3,1,$4,Female,english,,no,Chrome,Mac,900,1440,7.203733333333333,
469,list8,hall,1,1,1,650,10_hat_doubt,8,that,2,[],7,25,Yes,,3,1,$4,Female,english,,no,Chrome,Mac,900,1440,7.203733333333333,
469,list8,cents,1,0,1,1086,10_hat_doubt,8,Chris,3,[],7,25,Yes,,3,1,$4,Female,english,,no,Chrome,Mac,900,1440,7.203733333333333,
469,list8,bouquet,1,0,1,1242,10_hat_doubt,8,knitted,4,[],7,25,Yes,,3,1,$4,Female,english,,no,Chrome,Mac,900,1440,7.203733333333333,
469,list8,jack,1,1,1,833,10_hat_doubt,8,a,5,[],7,25,Yes,,3,1,$4,Female,english,,no,Chrome,Mac,900,1440,7.203733333333333,
469,list8,info.,1,0,1,661,10_hat_doubt,8,hat.,6,[],7,25,Yes,,3,1,$4,Female,english,,no,Chrome,Mac,900,1440,7.203733333333333,
469,list8,cell,1,1,1,1492,10_hat_doubt,8,He,7,[],7,25,Yes,,3,1,$4,Female,english,,no,Chrome,Mac,900,1440,7.203733333333333,
469,list8,miss,1,0,1,1448,10_hat_doubt,8,didn't,8,[],7,25,Yes,,3,1,$4,Female,english,,no,Chrome,Mac,900,1440,7.203733333333333,
469,list8,vs,1,0,1,572,10_hat_doubt,8,do,9,[],7,25,Yes,,3,1,$4,Female,english,,no,Chrome,Mac,900,1440,7.203733333333333,
469,list8,squeeze,1,0,1,632,10_hat_doubt,8,any,10,[],7,25,Yes,,3,1,$4,Female,english,,no,Chrome,Mac,900,1440,7.203733333333333,
469,list8,shut,1,1,1,581,10_hat_doubt,8,of,11,[],7,25,Yes,,3,1,$4,Female,english,,no,Chrome,Mac,900,1440,7.203733333333333,
469,list8,anti,1,1,1,774,10_hat_doubt,8,the,12,[],7,25,Yes,,3,1,$4,Female,english,,no,Chrome,Mac,900,1440,7.203733333333333,
469,list8,thank,1,0,1,805,10_hat_doubt,8,other,13,[],7,25,Yes,,3,1,$4,Female,english,,no,Chrome,Mac,900,1440,7.203733333333333,
469,list8,incorrectly,1,1,1,580,10_hat_doubt,8,assignments,14,[],7,25,Yes,,3,1,$4,Female,english,,no,Chrome,Mac,900,1440,7.203733333333333,
469,list8,sister.,1,1,1,955,10_hat_doubt,8,either.,15,[],7,25,Yes,,3,1,$4,Female,english,,no,Chrome,Mac,900,1440,7.203733333333333,
469,list8,x-x-x,0,1,0,1091,filler_01,9,The,0,[],7,25,Yes,,3,1,$4,Female,english,,no,Chrome,Mac,900,1440,7.203733333333333,
469,list8,unto,1,1,0,1206,filler_01,9,shoe,1,[],7,25,Yes,,3,1,$4,Female,english,,no,Chrome,Mac,900,1440,7.203733333333333,
469,list8,doubtful,1,0,0,1019,filler_01,9,salesman,2,[],7,25,Yes,,3,1,$4,Female,english,,no,Chrome,Mac,900,1440,7.203733333333333,
469,list8,poetry,1,0,0,1038,filler_01,9,looked,3,[],7,25,Yes,,3,1,$4,Female,english,,no,Chrome,Mac,900,1440,7.203733333333333,
469,list8,metabolites,1,0,0,1043,filler_01,9,impatiently,4,[],7,25,Yes,,3,1,$4,Female,english,,no,Chrome,Mac,900,1440,7.203733333333333,
469,list8,jack,1,1,0,720,filler_01,9,out,5,[],7,25,Yes,,3,1,$4,Female,english,,no,Chrome,Mac,900,1440,7.203733333333333,
469,list8,sir,1,0,0,649,filler_01,9,the,6,[],7,25,Yes,,3,1,$4,Female,english,,no,Chrome,Mac,900,1440,7.203733333333333,
469,list8,indeed,1,1,0,494,filler_01,9,window,7,[],7,25,Yes,,3,1,$4,Female,english,,no,Chrome,Mac,900,1440,7.203733333333333,
469,list8,apply,1,0,0,674,filler_01,9,while,8,[],7,25,Yes,,3,1,$4,Female,english,,no,Chrome,Mac,900,1440,7.203733333333333,
469,list8,century,1,0,0,909,filler_01,9,waiting,9,[],7,25,Yes,,3,1,$4,Female,english,,no,Chrome,Mac,900,1440,7.203733333333333,
469,list8,gift,1,0,0,547,filler_01,9,for,10,[],7,25,Yes,,3,1,$4,Female,english,,no,Chrome,Mac,900,1440,7.203733333333333,
469,list8,democrats.,1,0,0,879,filler_01,9,customers.,11,[],7,25,Yes,,3,1,$4,Female,english,,no,Chrome,Mac,900,1440,7.203733333333333,
469,list8,x-x-x,1,0,1,1468,14_gin_negated,10,Dan,0,[],7,25,Yes,,3,1,$4,Female,english,,no,Chrome,Mac,900,1440,7.203733333333333,
469,list8,nobody,1,1,1,821,14_gin_negated,10,didn't,1,[],7,25,Yes,,3,1,$4,Female,english,,no,Chrome,Mac,900,1440,7.203733333333333,
469,list8,weird,1,1,1,1191,14_gin_negated,10,drink,2,[],7,25,Yes,,3,1,$4,Female,english,,no,Chrome,Mac,900,1440,7.203733333333333,
469,list8,plan,1,0,1,573,14_gin_negated,10,a,3,[],7,25,Yes,,3,1,$4,Female,english,,no,Chrome,Mac,900,1440,7.203733333333333,
469,list8,digs,1,0,1,928,14_gin_negated,10,gin,4,[],7,25,Yes,,3,1,$4,Female,english,,no,Chrome,Mac,900,1440,7.203733333333333,
469,list8,greed,1,1,1,1320,14_gin_negated,10,tonic,5,[],7,25,Yes,,3,1,$4,Female,english,,no,Chrome,Mac,900,1440,7.203733333333333,
469,list8,guys,1,0,1,633,14_gin_negated,10,and,6,[],7,25,Yes,,3,1,$4,Female,english,,no,Chrome,Mac,900,1440,7.203733333333333,
469,list8,pre,1,1,1,462,14_gin_negated,10,he,7,[],7,25,Yes,,3,1,$4,Female,english,,no,Chrome,Mac,900,1440,7.203733333333333,
469,list8,lord,1,1,1,962,14_gin_negated,10,left,8,[],7,25,Yes,,3,1,$4,Female,english,,no,Chrome,Mac,900,1440,7.203733333333333,
469,list8,vote,1,1,1,1040,14_gin_negated,10,before,9,[],7,25,Yes,,3,1,$4,Female,english,,no,Chrome,Mac,900,1440,7.203733333333333,
469,list8,rights,1,0,1,665,14_gin_negated,10,everyone,10,[],7,25,Yes,,3,1,$4,Female,english,,no,Chrome,Mac,900,1440,7.203733333333333,
469,list8,huge,1,1,1,743,14_gin_negated,10,else,11,[],7,25,Yes,,3,1,$4,Female,english,,no,Chrome,Mac,900,1440,7.203733333333333,
469,list8,lady,1,0,1,651,14_gin_negated,10,was,12,[],7,25,Yes,,3,1,$4,Female,english,,no,Chrome,Mac,900,1440,7.203733333333333,
469,list8,suits.,1,1,1,709,14_gin_negated,10,drunk.,13,[],7,25,Yes,,3,1,$4,Female,english,,no,Chrome,Mac,900,1440,7.203733333333333,
469,list8,x-x-x,1,1,1,715,3_bear_failed,11,Carol,0,[],7,25,Yes,,3,1,$4,Female,english,,no,Chrome,Mac,900,1440,7.203733333333333,
469,list8,severe,1,1,1,607,3_bear_failed,11,failed,1,[],7,25,Yes,,3,1,$4,Female,english,,no,Chrome,Mac,900,1440,7.203733333333333,
469,list8,dad,1,0,1,602,3_bear_failed,11,to,2,[],7,25,Yes,,3,1,$4,Female,english,,no,Chrome,Mac,900,1440,7.203733333333333,
469,list8,yeah,1,1,1,687,3_bear_failed,11,see,3,[],7,25,Yes,,3,1,$4,Female,english,,no,Chrome,Mac,900,1440,7.203733333333333,
469,list8,vs,1,0,1,662,3_bear_failed,11,a,4,[],7,25,Yes,,3,1,$4,Female,english,,no,Chrome,Mac,900,1440,7.203733333333333,
469,list8,onto,0,0,1,1171,3_bear_failed,11,bear,5,[],7,25,Yes,,3,1,$4,Female,english,,no,Chrome,Mac,900,1440,7.203733333333333,
469,list8,pre,1,0,1,881,3_bear_failed,11,at,6,[],7,25,Yes,,3,1,$4,Female,english,,no,Chrome,Mac,900,1440,7.203733333333333,
469,list8,guys,1,0,1,476,3_bear_failed,11,the,7,[],7,25,Yes,,3,1,$4,Female,english,,no,Chrome,Mac,900,1440,7.203733333333333,
469,list8,euro.,1,1,1,865,3_bear_failed,11,zoo.,8,[],7,25,Yes,,3,1,$4,Female,english,,no,Chrome,Mac,900,1440,7.203733333333333,
469,list8,died,1,0,1,895,3_bear_failed,11,She,9,[],7,25,Yes,,3,1,$4,Female,english,,no,Chrome,Mac,900,1440,7.203733333333333,
469,list8,worry,1,1,1,1120,3_bear_failed,11,didn't,10,[],7,25,Yes,,3,1,$4,Female,english,,no,Chrome,Mac,900,1440,7.203733333333333,
469,list8,capita,1,1,1,840,3_bear_failed,11,get,11,[],7,25,Yes,,3,1,$4,Female,english,,no,Chrome,Mac,900,1440,7.203733333333333,
469,list8,sir,1,1,1,472,3_bear_failed,11,to,12,[],7,25,Yes,,3,1,$4,Female,english,,no,Chrome,Mac,900,1440,7.203733333333333,
469,list8,app,1,1,1,551,3_bear_failed,11,see,13,[],7,25,Yes,,3,1,$4,Female,english,,no,Chrome,Mac,900,1440,7.203733333333333,
469,list8,addition,1,1,1,704,3_bear_failed,11,any,14,[],7,25,Yes,,3,1,$4,Female,english,,no,Chrome,Mac,900,1440,7.203733333333333,
469,list8,gives,1,0,1,1031,3_bear_failed,11,other,15,[],7,25,Yes,,3,1,$4,Female,english,,no,Chrome,Mac,900,1440,7.203733333333333,
469,list8,none,1,0,1,1631,3_bear_failed,11,big,16,[],7,25,Yes,,3,1,$4,Female,english,,no,Chrome,Mac,900,1440,7.203733333333333,
469,list8,refused,1,0,1,650,3_bear_failed,11,animals,17,[],7,25,Yes,,3,1,$4,Female,english,,no,Chrome,Mac,900,1440,7.203733333333333,
469,list8,senate.,1,0,1,572,3_bear_failed,11,either.,18,[],7,25,Yes,,3,1,$4,Female,english,,no,Chrome,Mac,900,1440,7.203733333333333,
469,list8,x-x-x,1,1,1,519,12_ticket_know,12,I,0,[],7,25,Yes,,3,1,$4,Female,english,,no,Chrome,Mac,900,1440,7.203733333333333,
469,list8,nice,1,1,1,1103,12_ticket_know,12,know,1,[],7,25,Yes,,3,1,$4,Female,english,,no,Chrome,Mac,900,1440,7.203733333333333,
469,list8,cent,1,1,1,775,12_ticket_know,12,that,2,[],7,25,Yes,,3,1,$4,Female,english,,no,Chrome,Mac,900,1440,7.203733333333333,
469,list8,senate,1,0,1,1074,12_ticket_know,12,Thomas,3,[],7,25,Yes,,3,1,$4,Female,english,,no,Chrome,Mac,900,1440,7.203733333333333,
469,list8,capita,1,1,1,732,12_ticket_know,12,booked,4,[],7,25,Yes,,3,1,$4,Female,english,,no,Chrome,Mac,900,1440,7.203733333333333,
469,list8,glad,1,1,1,575,12_ticket_know,12,a,5,[],7,25,Yes,,3,1,$4,Female,english,,no,Chrome,Mac,900,1440,7.203733333333333,
469,list8,ethics,1,0,1,749,12_ticket_know,12,ticket,6,[],7,25,Yes,,3,1,$4,Female,english,,no,Chrome,Mac,900,1440,7.203733333333333,
469,list8,pre,1,1,1,837,12_ticket_know,12,in,7,[],7,25,Yes,,3,1,$4,Female,english,,no,Chrome,Mac,900,1440,7.203733333333333,
469,list8,studied.,1,0,1,626,12_ticket_know,12,advance.,8,[],7,25,Yes,,3,1,$4,Female,english,,no,Chrome,Mac,900,1440,7.203733333333333,
469,list8,cell,1,0,1,685,12_ticket_know,12,He,9,[],7,25,Yes,,3,1,$4,Female,english,,no,Chrome,Mac,900,1440,7.203733333333333,
469,list8,lot,1,1,1,817,12_ticket_know,12,also,10,[],7,25,Yes,,3,1,$4,Female,english,,no,Chrome,Mac,900,1440,7.203733333333333,
469,list8,guys,1,1,1,892,12_ticket_know,12,made,11,[],7,25,Yes,,3,1,$4,Female,english,,no,Chrome,Mac,900,1440,7.203733333333333,
469,list8,na,1,0,1,839,12_ticket_know,12,a,12,[],7,25,Yes,,3,1,$4,Female,english,,no,Chrome,Mac,900,1440,7.203733333333333,
469,list8,feels,1,0,1,1105,12_ticket_know,12,hotel,13,[],7,25,Yes,,3,1,$4,Female,english,,no,Chrome,Mac,900,1440,7.203733333333333,
469,list8,punished.,1,1,1,733,12_ticket_know,12,reservation.,14,[],7,25,Yes,,3,1,$4,Female,english,,no,Chrome,Mac,900,1440,7.203733333333333,
469,list8,x-x-x,1,1,1,752,4_book_failed,13,Susan,0,[],7,25,Yes,,3,1,$4,Female,english,,no,Chrome,Mac,900,1440,7.203733333333333,
469,list8,forget,0,1,1,1532,4_book_failed,13,failed,1,[],7,25,Yes,,3,1,$4,Female,english,,no,Chrome,Mac,900,1440,7.203733333333333,
469,list8,nice,1,1,1,652,4_book_failed,13,to,2,[],7,25,Yes,,3,1,$4,Female,english,,no,Chrome,Mac,900,1440,7.203733333333333,
469,list8,types,1,0,1,746,4_book_failed,13,write,3,[],7,25,Yes,,3,1,$4,Female,english,,no,Chrome,Mac,900,1440,7.203733333333333,
469,list8,ago,1,0,1,439,4_book_failed,13,a,4,[],7,25,Yes,,3,1,$4,Female,english,,no,Chrome,Mac,900,1440,7.203733333333333,
469,list8,guys.,1,0,1,783,4_book_failed,13,book.,5,[],7,25,Yes,,3,1,$4,Female,english,,no,Chrome,Mac,900,1440,7.203733333333333,
469,list8,cent,1,1,1,1202,4_book_failed,13,She,6,[],7,25,Yes,,3,1,$4,Female,english,,no,Chrome,Mac,900,1440,7.203733333333333,
469,list8,else,1,1,1,791,4_book_failed,13,also,7,[],7,25,Yes,,3,1,$4,Female,english,,no,Chrome,Mac,900,1440,7.203733333333333,
469,list8,kid,1,0,1,637,4_book_failed,13,hasn't,8,[],7,25,Yes,,3,1,$4,Female,english,,no,Chrome,Mac,900,1440,7.203733333333333,
469,list8,hour,1,0,1,551,4_book_failed,13,written,9,[],7,25,Yes,,3,1,$4,Female,english,,no,Chrome,Mac,900,1440,7.203733333333333,
469,list8,waited,1,1,1,626,4_book_failed,13,any,10,[],7,25,Yes,,3,1,$4,Female,english,,no,Chrome,Mac,900,1440,7.203733333333333,
469,list8,whom,1,1,1,984,4_book_failed,13,good,11,[],7,25,Yes,,3,1,$4,Female,english,,no,Chrome,Mac,900,1440,7.203733333333333,
469,list8,pregnant,1,0,1,872,4_book_failed,13,articles,12,[],7,25,Yes,,3,1,$4,Female,english,,no,Chrome,Mac,900,1440,7.203733333333333,
469,list8,cousin.,1,1,1,661,4_book_failed,13,lately.,13,[],7,25,Yes,,3,1,$4,Female,english,,no,Chrome,Mac,900,1440,7.203733333333333,
469,list8,x-x-x,1,1,0,599,filler_02,14,The,0,[],7,25,Yes,,3,1,$4,Female,english,,no,Chrome,Mac,900,1440,7.203733333333333,
469,list8,rescinded,1,1,0,1464,filler_02,14,lawnmower,1,[],7,25,Yes,,3,1,$4,Female,english,,no,Chrome,Mac,900,1440,7.203733333333333,
469,list8,mid,1,0,0,780,filler_02,14,did,2,[],7,25,Yes,,3,1,$4,Female,english,,no,Chrome,Mac,900,1440,7.203733333333333,
469,list8,app,1,0,0,489,filler_02,14,not,3,[],7,25,Yes,,3,1,$4,Female,english,,no,Chrome,Mac,900,1440,7.203733333333333,
469,list8,senate,1,1,0,860,filler_02,14,always,4,[],7,25,Yes,,3,1,$4,Female,english,,no,Chrome,Mac,900,1440,7.203733333333333,
469,list8,grateful,1,1,0,1201,filler_02,14,function,5,[],7,25,Yes,,3,1,$4,Female,english,,no,Chrome,Mac,900,1440,7.203733333333333,
469,list8,thousand,1,1,0,1063,filler_02,14,properly,6,[],7,25,Yes,,3,1,$4,Female,english,,no,Chrome,Mac,900,1440,7.203733333333333,
469,list8,ride,1,1,0,542,filler_02,14,when,7,[],7,25,Yes,,3,1,$4,Female,english,,no,Chrome,Mac,900,1440,7.203733333333333,
469,list8,miss,1,1,0,490,filler_02,14,the,8,[],7,25,Yes,,3,1,$4,Female,english,,no,Chrome,Mac,900,1440,7.203733333333333,
469,list8,hates,1,1,0,629,filler_02,14,grass,9,[],7,25,Yes,,3,1,$4,Female,english,,no,Chrome,Mac,900,1440,7.203733333333333,
469,list8,cent,1,1,0,485,filler_02,14,was,10,[],7,25,Yes,,3,1,$4,Female,english,,no,Chrome,Mac,900,1440,7.203733333333333,
469,list8,pays.,1,1,0,792,filler_02,14,wet.,11,[],7,25,Yes,,3,1,$4,Female,english,,no,Chrome,Mac,900,1440,7.203733333333333,
469,list8,x-x-x,1,1,1,522,11_cod_know,15,I,0,[],7,25,Yes,,3,1,$4,Female,english,,no,Chrome,Mac,900,1440,7.203733333333333,
469,list8,lady,1,0,1,895,11_cod_know,15,know,1,[],7,25,Yes,,3,1,$4,Female,english,,no,Chrome,Mac,900,1440,7.203733333333333,
469,list8,cent,1,0,1,494,11_cod_know,15,that,2,[],7,25,Yes,,3,1,$4,Female,english,,no,Chrome,Mac,900,1440,7.203733333333333,
469,list8,relax,1,1,1,910,11_cod_know,15,Sarah,3,[],7,25,Yes,,3,1,$4,Female,english,,no,Chrome,Mac,900,1440,7.203733333333333,
469,list8,bureau,1,1,1,824,11_cod_know,15,caught,4,[],7,25,Yes,,3,1,$4,Female,english,,no,Chrome,Mac,900,1440,7.203733333333333,
469,list8,knew,1,1,1,535,11_cod_know,15,a,5,[],7,25,Yes,,3,1,$4,Female,english,,no,Chrome,Mac,900,1440,7.203733333333333,
469,list8,laps.,1,1,1,569,11_cod_know,15,cod.,6,[],7,25,Yes,,3,1,$4,Female,english,,no,Chrome,Mac,900,1440,7.203733333333333,
469,list8,eyes,1,0,1,656,11_cod_know,15,She,7,[],7,25,Yes,,3,1,$4,Female,english,,no,Chrome,Mac,900,1440,7.203733333333333,
469,list8,ups,1,0,1,704,11_cod_know,15,ate,8,[],7,25,Yes,,3,1,$4,Female,english,,no,Chrome,Mac,900,1440,7.203733333333333,
469,list8,am,1,0,1,595,11_cod_know,15,it,9,[],7,25,Yes,,3,1,$4,Female,english,,no,Chrome,Mac,900,1440,7.203733333333333,
469,list8,yours,1,0,1,690,11_cod_know,15,for,10,[],7,25,Yes,,3,1,$4,Female,english,,no,Chrome,Mac,900,1440,7.203733333333333,
469,list8,argued.,1,0,1,455,11_cod_know,15,dinner.,11,[],7,25,Yes,,3,1,$4,Female,english,,no,Chrome,Mac,900,1440,7.203733333333333,
469,list8,x-x-x,1,1,0,474,filler_00,16,The,0,[],7,25,Yes,,3,1,$4,Female,english,,no,Chrome,Mac,900,1440,7.203733333333333,
469,list8,hauled,0,1,0,1313,filler_00,16,vacant,1,[],7,25,Yes,,3,1,$4,Female,english,,no,Chrome,Mac,900,1440,7.203733333333333,
469,list8,diseases,1,1,0,703,filler_00,16,building,2,[],7,25,Yes,,3,1,$4,Female,english,,no,Chrome,Mac,900,1440,7.203733333333333,
469,list8,marketers,1,1,0,1007,filler_00,16,overlooks,3,[],7,25,Yes,,3,1,$4,Female,english,,no,Chrome,Mac,900,1440,7.203733333333333,
469,list8,bill,1,0,0,721,filler_00,16,the,4,[],7,25,Yes,,3,1,$4,Female,english,,no,Chrome,Mac,900,1440,7.203733333333333,
469,list8,shall,1,0,0,834,filler_00,16,river,5,[],7,25,Yes,,3,1,$4,Female,english,,no,Chrome,Mac,900,1440,7.203733333333333,
469,list8,nice,1,0,0,541,filler_00,16,that,6,[],7,25,Yes,,3,1,$4,Female,english,,no,Chrome,Mac,900,1440,7.203733333333333,
469,list8,candy,1,0,0,1098,filler_00,16,winds,7,[],7,25,Yes,,3,1,$4,Female,english,,no,Chrome,Mac,900,1440,7.203733333333333,
469,list8,teacher,1,1,0,1002,filler_00,16,through,8,[],7,25,Yes,,3,1,$4,Female,english,,no,Chrome,Mac,900,1440,7.203733333333333,
469,list8,lady.,1,0,0,728,filler_00,16,town.,9,[],7,25,Yes,,3,1,$4,Female,english,,no,Chrome,Mac,900,1440,7.203733333333333,
469,list8,x-x-x,1,0,0,892,8_cake_modal,17,Michael,0,[],7,25,Yes,,3,1,$4,Female,english,,no,Chrome,Mac,900,1440,7.203733333333333,
469,list8,worse,1,0,0,556,8_cake_modal,17,wants,1,[],7,25,Yes,,3,1,$4,Female,english,,no,Chrome,Mac,900,1440,7.203733333333333,
469,list8,ago,1,1,0,646,8_cake_modal,17,to,2,[],7,25,Yes,,3,1,$4,Female,english,,no,Chrome,Mac,900,1440,7.203733333333333,
469,list8,quad,1,0,0,772,8_cake_modal,17,bake,3,[],7,25,Yes,,3,1,$4,Female,english,,no,Chrome,Mac,900,1440,7.203733333333333,
469,list8,met,1,1,0,583,8_cake_modal,17,a,4,[],7,25,Yes,,3,1,$4,Female,english,,no,Chrome,Mac,900,1440,7.203733333333333,
469,list8,cops,1,0,0,578,8_cake_modal,17,cake,5,[],7,25,Yes,,3,1,$4,Female,english,,no,Chrome,Mac,900,1440,7.203733333333333,
469,list8,arms,1,0,0,586,8_cake_modal,17,and,6,[],7,25,Yes,,3,1,$4,Female,english,,no,Chrome,Mac,900,1440,7.203733333333333,
469,list8,pre,1,1,0,778,8_cake_modal,17,it,7,[],7,25,Yes,,3,1,$4,Female,english,,no,Chrome,Mac,900,1440,7.203733333333333,
469,list8,federal,1,0,0,1249,8_cake_modal,17,is,8,[],7,25,Yes,,3,1,$4,Female,english,,no,Chrome,Mac,900,1440,7.203733333333333,
469,list8,debt,1,1,0,973,8_cake_modal,17,the,9,[],7,25,Yes,,3,1,$4,Female,english,,no,Chrome,Mac,900,1440,7.203733333333333,
469,list8,knew,1,0,0,731,8_cake_modal,17,best,10,[],7,25,Yes,,3,1,$4,Female,english,,no,Chrome,Mac,900,1440,7.203733333333333,
469,list8,posts,1,1,0,692,8_cake_modal,17,thing,11,[],7,25,Yes,,3,1,$4,Female,english,,no,Chrome,Mac,900,1440,7.203733333333333,
469,list8,cent,1,0,0,606,8_cake_modal,17,at,12,[],7,25,Yes,,3,1,$4,Female,english,,no,Chrome,Mac,900,1440,7.203733333333333,
469,list8,led,1,0,0,695,8_cake_modal,17,the,13,[],7,25,Yes,,3,1,$4,Female,english,,no,Chrome,Mac,900,1440,7.203733333333333,
469,list8,futile.,1,0,0,723,8_cake_modal,17,picnic.,14,[],7,25,Yes,,3,1,$4,Female,english,,no,Chrome,Mac,900,1440,7.203733333333333,
469,list8,x-x-x,1,1,1,577,9_letter_doubt,18,I,0,[],7,25,Yes,,3,1,$4,Female,english,,no,Chrome,Mac,900,1440,7.203733333333333,
469,list8,worse,1,0,1,841,9_letter_doubt,18,doubt,1,[],7,25,Yes,,3,1,$4,Female,english,,no,Chrome,Mac,900,1440,7.203733333333333,
469,list8,hall,1,1,1,522,9_letter_doubt,18,that,2,[],7,25,Yes,,3,1,$4,Female,english,,no,Chrome,Mac,900,1440,7.203733333333333,
469,list8,noodles,1,0,1,653,9_letter_doubt,18,Carolyn,3,[],7,25,Yes,,3,1,$4,Female,english,,no,Chrome,Mac,900,1440,7.203733333333333,
469,list8,rough,1,0,1,591,9_letter_doubt,18,wrote,4,[],7,25,Yes,,3,1,$4,Female,english,,no,Chrome,Mac,900,1440,7.203733333333333,
469,list8,dad,1,0,1,530,9_letter_doubt,18,a,5,[],7,25,Yes,,3,1,$4,Female,english,,no,Chrome,Mac,900,1440,7.203733333333333,
469,list8,starts,1,0,1,665,9_letter_doubt,18,letter,6,[],7,25,Yes,,3,1,$4,Female,english,,no,Chrome,Mac,900,1440,7.203733333333333,
469,list8,jobs,1,1,1,847,9_letter_doubt,18,to,7,[],7,25,Yes,,3,1,$4,Female,english,,no,Chrome,Mac,900,1440,7.203733333333333,
469,list8,jack,1,0,1,677,9_letter_doubt,18,her,8,[],7,25,Yes,,3,1,$4,Female,english,,no,Chrome,Mac,900,1440,7.203733333333333,
469,list8,awesome.,1,1,1,834,9_letter_doubt,18,parents.,9,[],7,25,Yes,,3,1,$4,Female,english,,no,Chrome,Mac,900,1440,7.203733333333333,
469,list8,eyes,1,0,1,927,9_letter_doubt,18,She,10,[],7,25,Yes,,3,1,$4,Female,english,,no,Chrome,Mac,900,1440,7.203733333333333,
469,list8,happen,0,1,1,1154,9_letter_doubt,18,also,11,[],7,25,Yes,,3,1,$4,Female,english,,no,Chrome,Mac,900,1440,7.203733333333333,
469,list8,crazy,1,1,1,806,9_letter_doubt,18,didn't,12,[],7,25,Yes,,3,1,$4,Female,english,,no,Chrome,Mac,900,1440,7.203733333333333,
469,list8,anti,1,0,1,834,9_letter_doubt,18,give,13,[],7,25,Yes,,3,1,$4,Female,english,,no,Chrome,Mac,900,1440,7.203733333333333,
469,list8,must,1,0,1,538,9_letter_doubt,18,them,14,[],7,25,Yes,,3,1,$4,Female,english,,no,Chrome,Mac,900,1440,7.203733333333333,
469,list8,oh,1,0,1,484,9_letter_doubt,18,a,15,[],7,25,Yes,,3,1,$4,Female,english,,no,Chrome,Mac,900,1440,7.203733333333333,
469,list8,guys.,1,0,1,534,9_letter_doubt,18,call.,16,[],7,25,Yes,,3,1,$4,Female,english,,no,Chrome,Mac,900,1440,7.203733333333333,
469,list8,x-x-x,1,0,1,535,7_beer_modal,19,Sam,0,[],7,25,Yes,,3,1,$4,Female,english,,no,Chrome,Mac,900,1440,7.203733333333333,
469,list8,worse,1,0,1,436,7_beer_modal,19,wants,1,[],7,25,Yes,,3,1,$4,Female,english,,no,Chrome,Mac,900,1440,7.203733333333333,
469,list8,ago,1,0,1,555,7_beer_modal,19,to,2,[],7,25,Yes,,3,1,$4,Female,english,,no,Chrome,Mac,900,1440,7.203733333333333,
469,list8,miles,1,1,1,791,7_beer_modal,19,order,3,[],7,25,Yes,,3,1,$4,Female,english,,no,Chrome,Mac,900,1440,7.203733333333333,
469,list8,jack,1,0,1,451,7_beer_modal,19,a,4,[],7,25,Yes,,3,1,$4,Female,english,,no,Chrome,Mac,900,1440,7.203733333333333,
469,list8,wore,1,0,1,672,7_beer_modal,19,beer,5,[],7,25,Yes,,3,1,$4,Female,english,,no,Chrome,Mac,900,1440,7.203733333333333,
469,list8,sir,1,1,1,1066,7_beer_modal,19,at,6,[],7,25,Yes,,3,1,$4,Female,english,,no,Chrome,Mac,900,1440,7.203733333333333,
469,list8,hate,1,0,1,977,7_beer_modal,19,the,7,[],7,25,Yes,,3,1,$4,Female,english,,no,Chrome,Mac,900,1440,7.203733333333333,
469,list8,nor,1,0,1,546,7_beer_modal,19,bar,8,[],7,25,Yes,,3,1,$4,Female,english,,no,Chrome,Mac,900,1440,7.203733333333333,
469,list8,yeah,1,0,1,435,7_beer_modal,19,and,9,[],7,25,Yes,,3,1,$4,Female,english,,no,Chrome,Mac,900,1440,7.203733333333333,
469,list8,yes,1,0,1,658,7_beer_modal,19,he,10,[],7,25,Yes,,3,1,$4,Female,english,,no,Chrome,Mac,900,1440,7.203733333333333,
469,list8,pre,1,1,1,736,7_beer_modal,19,also,11,[],7,25,Yes,,3,1,$4,Female,english,,no,Chrome,Mac,900,1440,7.203733333333333,
469,list8,cent,1,0,1,837,7_beer_modal,19,wants,12,[],7,25,Yes,,3,1,$4,Female,english,,no,Chrome,Mac,900,1440,7.203733333333333,
469,list8,knew,1,1,1,760,7_beer_modal,19,to,13,[],7,25,Yes,,3,1,$4,Female,english,,no,Chrome,Mac,900,1440,7.203733333333333,
469,list8,jobs,0,1,1,1180,7_beer_modal,19,get,14,[],7,25,Yes,,3,1,$4,Female,english,,no,Chrome,Mac,900,1440,7.203733333333333,
469,list8,mind,1,1,1,1360,7_beer_modal,19,some,15,[],7,25,Yes,,3,1,$4,Female,english,,no,Chrome,Mac,900,1440,7.203733333333333,
469,list8,caste.,1,0,1,776,7_beer_modal,19,fries.,16,[],7,25,Yes,,3,1,$4,Female,english,,no,Chrome,Mac,900,1440,7.203733333333333,
469,list8,x-x-x,1,1,1,1702,15_bone_affirmative,20,David,0,[],7,25,Yes,,3,1,$4,Female,english,,no,Chrome,Mac,900,1440,7.203733333333333,
469,list8,meaningful,0,1,1,1441,15_bone_affirmative,20,discovered,1,[],7,25,Yes,,3,1,$4,Female,english,,no,Chrome,Mac,900,1440,7.203733333333333,
469,list8,eat,1,1,1,934,15_bone_affirmative,20,a,2,[],7,25,Yes,,3,1,$4,Female,english,,no,Chrome,Mac,900,1440,7.203733333333333,
469,list8,onto,1,1,1,890,15_bone_affirmative,20,bone,3,[],7,25,Yes,,3,1,$4,Female,english,,no,Chrome,Mac,900,1440,7.203733333333333,
469,list8,yes,1,0,1,860,15_bone_affirmative,20,on,4,[],7,25,Yes,,3,1,$4,Female,english,,no,Chrome,Mac,900,1440,7.203733333333333,
469,list8,else,1,1,1,629,15_bone_affirmative,20,his,5,[],7,25,Yes,,3,1,$4,Female,english,,no,Chrome,Mac,900,1440,7.203733333333333,
469,list8,anthropogenic,1,0,1,2407,15_bone_affirmative,20,archeological,6,[],7,25,Yes,,3,1,$4,Female,english,,no,Chrome,Mac,900,1440,7.203733333333333,
469,list8,facilitate,1,1,1,1574,15_bone_affirmative,20,expedition,7,[],7,25,Yes,,3,1,$4,Female,english,,no,Chrome,Mac,900,1440,7.203733333333333,
469,list8,soul,1,0,1,601,15_bone_affirmative,20,and,8,[],7,25,Yes,,3,1,$4,Female,english,,no,Chrome,Mac,900,1440,7.203733333333333,
469,list8,guys,1,1,1,456,15_bone_affirmative,20,he,9,[],7,25,Yes,,3,1,$4,Female,english,,no,Chrome,Mac,900,1440,7.203733333333333,
469,list8,wedding,1,1,1,1049,15_bone_affirmative,20,brought,10,[],7,25,Yes,,3,1,$4,Female,english,,no,Chrome,Mac,900,1440,7.203733333333333,
469,list8,anymore,1,1,1,673,15_bone_affirmative,20,it,11,[],7,25,Yes,,3,1,$4,Female,english,,no,Chrome,Mac,900,1440,7.203733333333333,
469,list8,hear,1,0,1,766,15_bone_affirmative,20,back,12,[],7,25,Yes,,3,1,$4,Female,english,,no,Chrome,Mac,900,1440,7.203733333333333,
469,list8,glad,1,1,1,511,15_bone_affirmative,20,to,13,[],7,25,Yes,,3,1,$4,Female,english,,no,Chrome,Mac,900,1440,7.203733333333333,
469,list8,verdict,1,0,1,590,15_bone_affirmative,20,the,14,[],7,25,Yes,,3,1,$4,Female,english,,no,Chrome,Mac,900,1440,7.203733333333333,
469,list8,puts,1,1,1,2555,15_bone_affirmative,20,lab,15,[],7,25,Yes,,3,1,$4,Female,english,,no,Chrome,Mac,900,1440,7.203733333333333,
469,list8,vote,0,1,1,1626,15_bone_affirmative,20,for,16,[],7,25,Yes,,3,1,$4,Female,english,,no,Chrome,Mac,900,1440,7.203733333333333,
469,list8,yeah,1,0,1,859,15_bone_affirmative,20,an,17,[],7,25,Yes,,3,1,$4,Female,english,,no,Chrome,Mac,900,1440,7.203733333333333,
469,list8,disorders,1,0,1,1227,15_bone_affirmative,20,extensive,18,[],7,25,Yes,,3,1,$4,Female,english,,no,Chrome,Mac,900,1440,7.203733333333333,
469,list8,somebody.,1,1,1,813,15_bone_affirmative,20,analysis.,19,[],7,25,Yes,,3,1,$4,Female,english,,no,Chrome,Mac,900,1440,7.203733333333333,
469,list8,x-x-x,1,0,0,547,filler_07,21,The,0,[],7,25,Yes,,3,1,$4,Female,english,,no,Chrome,Mac,900,1440,7.203733333333333,
469,list8,speciation,1,1,0,1120,filler_07,21,bulldozers,1,[],7,25,Yes,,3,1,$4,Female,english,,no,Chrome,Mac,900,1440,7.203733333333333,
469,list8,luck,1,1,0,710,filler_07,21,were,2,[],7,25,Yes,,3,1,$4,Female,english,,no,Chrome,Mac,900,1440,7.203733333333333,
469,list8,playoffs,1,0,0,932,filler_07,21,removing,3,[],7,25,Yes,,3,1,$4,Female,english,,no,Chrome,Mac,900,1440,7.203733333333333,
469,list8,frenzy,1,1,0,1120,filler_07,21,rubble,4,[],7,25,Yes,,3,1,$4,Female,english,,no,Chrome,Mac,900,1440,7.203733333333333,
469,list8,love,1,1,0,799,filler_07,21,from,5,[],7,25,Yes,,3,1,$4,Female,english,,no,Chrome,Mac,900,1440,7.203733333333333,
469,list8,hear,1,1,0,762,filler_07,21,the,6,[],7,25,Yes,,3,1,$4,Female,english,,no,Chrome,Mac,900,1440,7.203733333333333,
469,list8,dismissing,1,0,0,798,filler_07,21,demolished,7,[],7,25,Yes,,3,1,$4,Female,english,,no,Chrome,Mac,900,1440,7.203733333333333,
469,list8,tomorrow.,1,0,0,551,filler_07,21,building.,8,[],7,25,Yes,,3,1,$4,Female,english,,no,Chrome,Mac,900,1440,7.203733333333333,
469,list8,x-x-x,1,1,1,626,6_rat_managed,22,Carla,0,[],7,25,Yes,,3,1,$4,Female,english,,no,Chrome,Mac,900,1440,7.203733333333333,
469,list8,awesome,1,1,1,1047,6_rat_managed,22,managed,1,[],7,25,Yes,,3,1,$4,Female,english,,no,Chrome,Mac,900,1440,7.203733333333333,
469,list8,sir,1,0,1,698,6_rat_managed,22,to,2,[],7,25,Yes,,3,1,$4,Female,english,,no,Chrome,Mac,900,1440,7.203733333333333,
469,list8,guy,1,1,1,732,6_rat_managed,22,get,3,[],7,25,Yes,,3,1,$4,Female,english,,no,Chrome,Mac,900,1440,7.203733333333333,
469,list8,jack,1,1,1,769,6_rat_managed,22,a,4,[],7,25,Yes,,3,1,$4,Female,english,,no,Chrome,Mac,900,1440,7.203733333333333,
469,list8,nor,1,0,1,914,6_rat_managed,22,pet,5,[],7,25,Yes,,3,1,$4,Female,english,,no,Chrome,Mac,900,1440,7.203733333333333,
469,list8,gaps.,1,1,1,723,6_rat_managed,22,rat.,6,[],7,25,Yes,,3,1,$4,Female,english,,no,Chrome,Mac,900,1440,7.203733333333333,
469,list8,vote,1,0,1,686,6_rat_managed,22,She,7,[],7,25,Yes,,3,1,$4,Female,english,,no,Chrome,Mac,900,1440,7.203733333333333,
469,list8,worse,1,0,1,791,6_rat_managed,22,found,8,[],7,25,Yes,,3,1,$4,Female,english,,no,Chrome,Mac,900,1440,7.203733333333333,
469,list8,hill,1,1,1,905,6_rat_managed,22,one,9,[],7,25,Yes,,3,1,$4,Female,english,,no,Chrome,Mac,900,1440,7.203733333333333,
469,list8,fees,1,0,1,634,6_rat_managed,22,at,10,[],7,25,Yes,,3,1,$4,Female,english,,no,Chrome,Mac,900,1440,7.203733333333333,
469,list8,oh,1,0,1,639,6_rat_managed,22,the,11,[],7,25,Yes,,3,1,$4,Female,english,,no,Chrome,Mac,900,1440,7.203733333333333,
469,list8,knows,1,1,1,822,6_rat_managed,22,store,12,[],7,25,Yes,,3,1,$4,Female,english,,no,Chrome,Mac,900,1440,7.203733333333333,
469,list8,hate,1,1,1,2378,6_rat_managed,22,at,13,[],7,25,Yes,,3,1,$4,Female,english,,no,Chrome,Mac,900,1440,7.203733333333333,
469,list8,rule,1,1,1,866,6_rat_managed,22,the,14,[],7,25,Yes,,3,1,$4,Female,english,,no,Chrome,Mac,900,1440,7.203733333333333,
469,list8,heal.,1,0,1,651,6_rat_managed,22,mall.,15,[],7,25,Yes,,3,1,$4,Female,english,,no,Chrome,Mac,900,1440,7.203733333333333,
469,list8,x-x-x,1,1,0,1117,filler_10,23,The,0,[],7,25,Yes,,3,1,$4,Female,english,,no,Chrome,Mac,900,1440,7.203733333333333,
469,list8,encountered,1,1,0,1286,filler_10,23,documentary,1,[],7,25,Yes,,3,1,$4,Female,english,,no,Chrome,Mac,900,1440,7.203733333333333,
469,list8,sir,1,0,0,779,filler_10,23,did,2,[],7,25,Yes,,3,1,$4,Female,english,,no,Chrome,Mac,900,1440,7.203733333333333,
469,list8,cent,1,0,0,604,filler_10,23,not,3,[],7,25,Yes,,3,1,$4,Female,english,,no,Chrome,Mac,900,1440,7.203733333333333,
469,list8,practicing,1,0,0,957,filler_10,23,accurately,4,[],7,25,Yes,,3,1,$4,Female,english,,no,Chrome,Mac,900,1440,7.203733333333333,
469,list8,chilled,1,0,0,511,filler_10,23,portray,5,[],7,25,Yes,,3,1,$4,Female,english,,no,Chrome,Mac,900,1440,7.203733333333333,
469,list8,eat,1,0,0,500,filler_10,23,the,6,[],7,25,Yes,,3,1,$4,Female,english,,no,Chrome,Mac,900,1440,7.203733333333333,
469,list8,anyway,1,1,0,804,filler_10,23,events,7,[],7,25,Yes,,3,1,$4,Female,english,,no,Chrome,Mac,900,1440,7.203733333333333,
469,list8,scholarship,1,0,0,765,filler_10,23,surrounding,8,[],7,25,Yes,,3,1,$4,Female,english,,no,Chrome,Mac,900,1440,7.203733333333333,
469,list8,feel,1,1,0,594,filler_10,23,the,9,[],7,25,Yes,,3,1,$4,Female,english,,no,Chrome,Mac,900,1440,7.203733333333333,
469,list8,certainly,1,0,0,761,filler_10,23,political,10,[],7,25,Yes,,3,1,$4,Female,english,,no,Chrome,Mac,900,1440,7.203733333333333,
469,list8,possess.,1,1,0,774,filler_10,23,scandal.,11,[],7,25,Yes,,3,1,$4,Female,english,,no,Chrome,Mac,900,1440,7.203733333333333,
469,list8,x-x-x,1,0,1,1741,5_shirt_managed,24,Mary,0,[],7,25,Yes,,3,1,$4,Female,english,,no,Chrome,Mac,900,1440,7.203733333333333,
469,list8,whoever,1,0,1,791,5_shirt_managed,24,managed,1,[],7,25,Yes,,3,1,$4,Female,english,,no,Chrome,Mac,900,1440,7.203733333333333,
469,list8,miss,1,1,1,510,5_shirt_managed,24,to,2,[],7,25,Yes,,3,1,$4,Female,english,,no,Chrome,Mac,900,1440,7.203733333333333,
469,list8,glad,1,0,1,703,5_shirt_managed,24,find,3,[],7,25,Yes,,3,1,$4,Female,english,,no,Chrome,Mac,900,1440,7.203733333333333,
469,list8,yeah,1,0,1,381,5_shirt_managed,24,a,4,[],7,25,Yes,,3,1,$4,Female,english,,no,Chrome,Mac,900,1440,7.203733333333333,
469,list8,yards,1,0,1,873,5_shirt_managed,24,shirt,5,[],7,25,Yes,,3,1,$4,Female,english,,no,Chrome,Mac,900,1440,7.203733333333333,
469,list8,anti,1,0,1,488,5_shirt_managed,24,at,6,[],7,25,Yes,,3,1,$4,Female,english,,no,Chrome,Mac,900,1440,7.203733333333333,
469,list8,done,1,1,1,871,5_shirt_managed,24,the,7,[],7,25,Yes,,3,1,$4,Female,english,,no,Chrome,Mac,900,1440,7.203733333333333,
469,list8,lived.,1,0,1,709,5_shirt_managed,24,store.,8,[],7,25,Yes,,3,1,$4,Female,english,,no,Chrome,Mac,900,1440,7.203733333333333,
469,list8,cell,1,1,1,801,5_shirt_managed,24,She,9,[],7,25,Yes,,3,1,$4,Female,english,,no,Chrome,Mac,900,1440,7.203733333333333,
469,list8,ruin,1,1,1,1028,5_shirt_managed,24,wore,10,[],7,25,Yes,,3,1,$4,Female,english,,no,Chrome,Mac,900,1440,7.203733333333333,
469,list8,happens,1,0,1,495,5_shirt_managed,24,it,11,[],7,25,Yes,,3,1,$4,Female,english,,no,Chrome,Mac,900,1440,7.203733333333333,
469,list8,app,1,0,1,528,5_shirt_managed,24,at,12,[],7,25,Yes,,3,1,$4,Female,english,,no,Chrome,Mac,900,1440,7.203733333333333,
469,list8,mom,1,0,1,561,5_shirt_managed,24,the,13,[],7,25,Yes,,3,1,$4,Female,english,,no,Chrome,Mac,900,1440,7.203733333333333,
469,list8,towards.,1,1,1,669,5_shirt_managed,24,wedding.,14,[],7,25,Yes,,3,1,$4,Female,english,,no,Chrome,Mac,900,1440,7.203733333333333,
469,list8,x-x-x,1,0,0,547,filler_11,25,The,0,[],7,25,Yes,,3,1,$4,Female,english,,no,Chrome,Mac,900,1440,7.203733333333333,
469,list8,accurately,1,1,0,810,filler_11,25,university,1,[],7,25,Yes,,3,1,$4,Female,english,,no,Chrome,Mac,900,1440,7.203733333333333,
469,list8,okay,1,1,0,1353,filler_11,25,town,2,[],7,25,Yes,,3,1,$4,Female,english,,no,Chrome,Mac,900,1440,7.203733333333333,
469,list8,synthetic,0,1,0,1673,filler_11,25,attracted,3,[],7,25,Yes,,3,1,$4,Female,english,,no,Chrome,Mac,900,1440,7.203733333333333,
469,list8,hole,0,0,0,1399,filler_11,25,lots,4,[],7,25,Yes,,3,1,$4,Female,english,,no,Chrome,Mac,900,1440,7.203733333333333,
469,list8,sir,1,1,0,1214,filler_11,25,of,5,[],7,25,Yes,,3,1,$4,Female,english,,no,Chrome,Mac,900,1440,7.203733333333333,
469,list8,withdraw,1,0,0,698,filler_11,25,tourists,6,[],7,25,Yes,,3,1,$4,Female,english,,no,Chrome,Mac,900,1440,7.203733333333333,
469,list8,cancer,1,0,0,669,filler_11,25,during,7,[],7,25,Yes,,3,1,$4,Female,english,,no,Chrome,Mac,900,1440,7.203733333333333,
469,list8,hate,0,1,0,931,filler_11,25,the,8,[],7,25,Yes,,3,1,$4,Female,english,,no,Chrome,Mac,900,1440,7.203733333333333,
469,list8,seemed.,1,1,0,1022,filler_11,25,summer.,9,[],7,25,Yes,,3,1,$4,Female,english,,no,Chrome,Mac,900,1440,7.203733333333333,
469,list8,x-x-x,1,0,0,737,filler_04,26,The,0,[],7,25,Yes,,3,1,$4,Female,english,,no,Chrome,Mac,900,1440,7.203733333333333,
469,list8,seen,1,1,0,875,filler_04,26,new,1,[],7,25,Yes,,3,1,$4,Female,english,,no,Chrome,Mac,900,1440,7.203733333333333,
469,list8,accurately,0,1,0,1133,filler_04,26,experiment,2,[],7,25,Yes,,3,1,$4,Female,english,,no,Chrome,Mac,900,1440,7.203733333333333,
469,list8,hate,1,0,0,916,filler_04,26,was,3,[],7,25,Yes,,3,1,$4,Female,english,,no,Chrome,Mac,900,1440,7.203733333333333,
469,list8,cent,1,0,0,645,filler_04,26,the,4,[],7,25,Yes,,3,1,$4,Female,english,,no,Chrome,Mac,900,1440,7.203733333333333,
469,list8,thinks,1,0,0,1432,filler_04,26,source,5,[],7,25,Yes,,3,1,$4,Female,english,,no,Chrome,Mac,900,1440,7.203733333333333,
469,list8,cold,0,0,0,617,filler_04,26,of,6,[],7,25,Yes,,3,1,$4,Female,english,,no,Chrome,Mac,900,1440,7.203733333333333,
469,list8,vs,1,0,0,1192,filler_04,26,a,7,[],7,25,Yes,,3,1,$4,Female,english,,no,Chrome,Mac,900,1440,7.203733333333333,
469,list8,hours,1,0,0,947,filler_04,26,great,8,[],7,25,Yes,,3,1,$4,Female,english,,no,Chrome,Mac,900,1440,7.203733333333333,
469,list8,died,1,0,0,714,filler_04,26,deal,9,[],7,25,Yes,,3,1,$4,Female,english,,no,Chrome,Mac,900,1440,7.203733333333333,
469,list8,keep,1,1,0,693,filler_04,26,of,10,[],7,25,Yes,,3,1,$4,Female,english,,no,Chrome,Mac,900,1440,7.203733333333333,
469,list8,midfielder,1,1,0,1299,filler_04,26,excitement,11,[],7,25,Yes,,3,1,$4,Female,english,,no,Chrome,Mac,900,1440,7.203733333333333,
469,list8,safe,1,1,0,744,filler_04,26,in,12,[],7,25,Yes,,3,1,$4,Female,english,,no,Chrome,Mac,900,1440,7.203733333333333,
469,list8,bag,1,1,0,589,filler_04,26,the,13,[],7,25,Yes,,3,1,$4,Female,english,,no,Chrome,Mac,900,1440,7.203733333333333,
469,list8,suck.,1,1,0,991,filler_04,26,lab.,14,[],7,25,Yes,,3,1,$4,Female,english,,no,Chrome,Mac,900,1440,7.203733333333333,
469,list8,x-x-x,0,1,0,3228,filler_08,27,The,0,[],7,25,Yes,,3,1,$4,Female,english,,no,Chrome,Mac,900,1440,7.203733333333333,
469,list8,rescinded,1,1,0,1281,filler_08,27,squirrels,1,[],7,25,Yes,,3,1,$4,Female,english,,no,Chrome,Mac,900,1440,7.203733333333333,
469,list8,patriots,1,0,0,764,filler_08,27,gathered,2,[],7,25,Yes,,3,1,$4,Female,english,,no,Chrome,Mac,900,1440,7.203733333333333,
469,list8,cent,1,1,0,1735,filler_08,27,many,3,[],7,25,Yes,,3,1,$4,Female,english,,no,Chrome,Mac,900,1440,7.203733333333333,
469,list8,edit,1,1,0,1176,filler_08,27,nuts,4,[],7,25,Yes,,3,1,$4,Female,english,,no,Chrome,Mac,900,1440,7.203733333333333,
469,list8,result,1,0,0,868,filler_08,27,before,5,[],7,25,Yes,,3,1,$4,Female,english,,no,Chrome,Mac,900,1440,7.203733333333333,
469,list8,feel,1,1,0,586,filler_08,27,the,6,[],7,25,Yes,,3,1,$4,Female,english,,no,Chrome,Mac,900,1440,7.203733333333333,
469,list8,hence,1,0,0,1036,filler_08,27,storm,7,[],7,25,Yes,,3,1,$4,Female,english,,no,Chrome,Mac,900,1440,7.203733333333333,
469,list8,correct.,1,1,0,797,filler_08,27,arrived.,8,[],7,25,Yes,,3,1,$4,Female,english,,no,Chrome,Mac,900,1440,7.203733333333333,
469,list8,x-x-x,1,0,0,735,filler_05,28,The,0,[],7,25,Yes,,3,1,$4,Female,english,,no,Chrome,Mac,900,1440,7.203733333333333,
469,list8,fail,1,0,0,1365,filler_05,28,band,1,[],7,25,Yes,,3,1,$4,Female,english,,no,Chrome,Mac,900,1440,7.203733333333333,
469,list8,hill,1,0,0,619,filler_05,28,had,2,[],7,25,Yes,,3,1,$4,Female,english,,no,Chrome,Mac,900,1440,7.203733333333333,
469,list8,app,1,1,0,693,filler_05,28,to,3,[],7,25,Yes,,3,1,$4,Female,english,,no,Chrome,Mac,900,1440,7.203733333333333,
469,list8,yeah,1,1,0,839,filler_05,28,set,4,[],7,25,Yes,,3,1,$4,Female,english,,no,Chrome,Mac,900,1440,7.203733333333333,
469,list8,ago,1,0,0,641,filler_05,28,up,5,[],7,25,Yes,,3,1,$4,Female,english,,no,Chrome,Mac,900,1440,7.203733333333333,
469,list8,knows,1,0,0,757,filler_05,28,their,6,[],7,25,Yes,,3,1,$4,Female,english,,no,Chrome,Mac,900,1440,7.203733333333333,
469,list8,goes,1,0,0,1049,filler_05,28,own,7,[],7,25,Yes,,3,1,$4,Female,english,,no,Chrome,Mac,900,1440,7.203733333333333,
469,list8,concluded,1,1,0,874,filler_05,28,equipment,8,[],7,25,Yes,,3,1,$4,Female,english,,no,Chrome,Mac,900,1440,7.203733333333333,
469,list8,minute,1,0,0,659,filler_05,28,before,9,[],7,25,Yes,,3,1,$4,Female,english,,no,Chrome,Mac,900,1440,7.203733333333333,
469,list8,mom,1,0,0,539,filler_05,28,the,10,[],7,25,Yes,,3,1,$4,Female,english,,no,Chrome,Mac,900,1440,7.203733333333333,
469,list8,imagine.,1,1,0,751,filler_05,28,concert.,11,[],7,25,Yes,,3,1,$4,Female,english,,no,Chrome,Mac,900,1440,7.203733333333333,
468,list1,x-x-x,1,1,0,10580,practice_01,0,The,0,[],0,21,Yes,This experiment was a cool test of my cognitive ability to string sentences together in rapidity. ,2,1,$1,Male,english,none,"No, none.",Chrome,Mac,900,1440,8.50175,
468,list1,configured,1,1,0,2924,practice_01,0,babysitter,1,[],0,21,Yes,This experiment was a cool test of my cognitive ability to string sentences together in rapidity. ,2,1,$1,Male,english,none,"No, none.",Chrome,Mac,900,1440,8.50175,
468,list1,calm,1,0,0,1240,practice_01,0,gave,2,[],0,21,Yes,This experiment was a cool test of my cognitive ability to string sentences together in rapidity. ,2,1,$1,Male,english,none,"No, none.",Chrome,Mac,900,1440,8.50175,
468,list1,else,1,0,0,956,practice_01,0,the,3,[],0,21,Yes,This experiment was a cool test of my cognitive ability to string sentences together in rapidity. ,2,1,$1,Male,english,none,"No, none.",Chrome,Mac,900,1440,8.50175,
468,list1,announces,1,1,0,5843,practice_01,0,screaming,4,[],0,21,Yes,This experiment was a cool test of my cognitive ability to string sentences together in rapidity. ,2,1,$1,Male,english,none,"No, none.",Chrome,Mac,900,1440,8.50175,
468,list1,intends,1,0,0,1293,practice_01,0,toddler,5,[],0,21,Yes,This experiment was a cool test of my cognitive ability to string sentences together in rapidity. ,2,1,$1,Male,english,none,"No, none.",Chrome,Mac,900,1440,8.50175,
468,list1,pre,1,0,0,1089,practice_01,0,a,6,[],0,21,Yes,This experiment was a cool test of my cognitive ability to string sentences together in rapidity. ,2,1,$1,Male,english,none,"No, none.",Chrome,Mac,900,1440,8.50175,
468,list1,democrats.,1,1,0,1420,practice_01,0,chocolate.,7,[],0,21,Yes,This experiment was a cool test of my cognitive ability to string sentences together in rapidity. ,2,1,$1,Male,english,none,"No, none.",Chrome,Mac,900,1440,8.50175,
468,list1,x-x-x,1,1,0,2208,practice_02,1,The,0,[],0,21,Yes,This experiment was a cool test of my cognitive ability to string sentences together in rapidity. ,2,1,$1,Male,english,none,"No, none.",Chrome,Mac,900,1440,8.50175,
468,list1,propelled,1,0,0,1267,practice_02,1,lifeguard,1,[],0,21,Yes,This experiment was a cool test of my cognitive ability to string sentences together in rapidity. ,2,1,$1,Male,english,none,"No, none.",Chrome,Mac,900,1440,8.50175,
468,list1,glad,1,0,0,1290,practice_02,1,kept,2,[],0,21,Yes,This experiment was a cool test of my cognitive ability to string sentences together in rapidity. ,2,1,$1,Male,english,none,"No, none.",Chrome,Mac,900,1440,8.50175,
468,list1,cent,1,1,0,1039,practice_02,1,an,3,[],0,21,Yes,This experiment was a cool test of my cognitive ability to string sentences together in rapidity. ,2,1,$1,Male,english,none,"No, none.",Chrome,Mac,900,1440,8.50175,
468,list1,kid,1,1,0,1522,practice_02,1,eye,4,[],0,21,Yes,This experiment was a cool test of my cognitive ability to string sentences together in rapidity. ,2,1,$1,Male,english,none,"No, none.",Chrome,Mac,900,1440,8.50175,
468,list1,al,1,0,0,865,practice_02,1,on,5,[],0,21,Yes,This experiment was a cool test of my cognitive ability to string sentences together in rapidity. ,2,1,$1,Male,english,none,"No, none.",Chrome,Mac,900,1440,8.50175,
468,list1,else,1,0,0,851,practice_02,1,his,6,[],0,21,Yes,This experiment was a cool test of my cognitive ability to string sentences together in rapidity. ,2,1,$1,Male,english,none,"No, none.",Chrome,Mac,900,1440,8.50175,
468,list1,none,1,0,0,1208,practice_02,1,part,7,[],0,21,Yes,This experiment was a cool test of my cognitive ability to string sentences together in rapidity. ,2,1,$1,Male,english,none,"No, none.",Chrome,Mac,900,1440,8.50175,
468,list1,sell,1,0,0,668,practice_02,1,of,8,[],0,21,Yes,This experiment was a cool test of my cognitive ability to string sentences together in rapidity. ,2,1,$1,Male,english,none,"No, none.",Chrome,Mac,900,1440,8.50175,
468,list1,yeah,1,0,0,696,practice_02,1,the,9,[],0,21,Yes,This experiment was a cool test of my cognitive ability to string sentences together in rapidity. ,2,1,$1,Male,english,none,"No, none.",Chrome,Mac,900,1440,8.50175,
468,list1,cents,1,0,0,799,practice_02,1,beach,10,[],0,21,Yes,This experiment was a cool test of my cognitive ability to string sentences together in rapidity. ,2,1,$1,Male,english,none,"No, none.",Chrome,Mac,900,1440,8.50175,
468,list1,sir,1,1,0,1436,practice_02,1,all,11,[],0,21,Yes,This experiment was a cool test of my cognitive ability to string sentences together in rapidity. ,2,1,$1,Male,english,none,"No, none.",Chrome,Mac,900,1440,8.50175,
468,list1,god.,1,1,0,1344,practice_02,1,day.,12,[],0,21,Yes,This experiment was a cool test of my cognitive ability to string sentences together in rapidity. ,2,1,$1,Male,english,none,"No, none.",Chrome,Mac,900,1440,8.50175,
468,list1,x-x-x,1,0,0,654,practice_03,2,The,0,[],0,21,Yes,This experiment was a cool test of my cognitive ability to string sentences together in rapidity. ,2,1,$1,Male,english,none,"No, none.",Chrome,Mac,900,1440,8.50175,
468,list1,its,1,1,0,1190,practice_03,2,new,1,[],0,21,Yes,This experiment was a cool test of my cognitive ability to string sentences together in rapidity. ,2,1,$1,Male,english,none,"No, none.",Chrome,Mac,900,1440,8.50175,
468,list1,awesome,1,0,0,697,practice_03,2,student,2,[],0,21,Yes,This experiment was a cool test of my cognitive ability to string sentences together in rapidity. ,2,1,$1,Male,english,none,"No, none.",Chrome,Mac,900,1440,8.50175,
468,list1,nice,1,1,0,687,practice_03,2,was,3,[],0,21,Yes,This experiment was a cool test of my cognitive ability to string sentences together in rapidity. ,2,1,$1,Male,english,none,"No, none.",Chrome,Mac,900,1440,8.50175,
468,list1,vessels,1,0,0,3354,practice_03,2,noticed,4,[],0,21,Yes,This experiment was a cool test of my cognitive ability to string sentences together in rapidity. ,2,1,$1,Male,english,none,"No, none.",Chrome,Mac,900,1440,8.50175,
468,list1,miss,1,1,0,978,practice_03,2,by,5,[],0,21,Yes,This experiment was a cool test of my cognitive ability to string sentences together in rapidity. ,2,1,$1,Male,english,none,"No, none.",Chrome,Mac,900,1440,8.50175,
468,list1,universe,1,1,0,1061,practice_03,2,everyone,6,[],0,21,Yes,This experiment was a cool test of my cognitive ability to string sentences together in rapidity. ,2,1,$1,Male,english,none,"No, none.",Chrome,Mac,900,1440,8.50175,
468,list1,lots,1,1,0,838,practice_03,2,when,7,[],0,21,Yes,This experiment was a cool test of my cognitive ability to string sentences together in rapidity. ,2,1,$1,Male,english,none,"No, none.",Chrome,Mac,900,1440,8.50175,
468,list1,jack,0,1,0,2038,practice_03,2,he,8,[],0,21,Yes,This experiment was a cool test of my cognitive ability to string sentences together in rapidity. ,2,1,$1,Male,english,none,"No, none.",Chrome,Mac,900,1440,8.50175,
468,list1,ways,1,0,0,1414,practice_03,2,came,9,[],0,21,Yes,This experiment was a cool test of my cognitive ability to string sentences together in rapidity. ,2,1,$1,Male,english,none,"No, none.",Chrome,Mac,900,1440,8.50175,
468,list1,fund,1,1,0,734,practice_03,2,into,10,[],0,21,Yes,This experiment was a cool test of my cognitive ability to string sentences together in rapidity. ,2,1,$1,Male,english,none,"No, none.",Chrome,Mac,900,1440,8.50175,
468,list1,cent,1,1,0,821,practice_03,2,the,11,[],0,21,Yes,This experiment was a cool test of my cognitive ability to string sentences together in rapidity. ,2,1,$1,Male,english,none,"No, none.",Chrome,Mac,900,1440,8.50175,
468,list1,sent.,1,0,0,868,practice_03,2,room.,12,[],0,21,Yes,This experiment was a cool test of my cognitive ability to string sentences together in rapidity. ,2,1,$1,Male,english,none,"No, none.",Chrome,Mac,900,1440,8.50175,
468,list1,x-x-x,1,1,0,723,filler_07,3,The,0,[],0,21,Yes,This experiment was a cool test of my cognitive ability to string sentences together in rapidity. ,2,1,$1,Male,english,none,"No, none.",Chrome,Mac,900,1440,8.50175,
468,list1,speciation,1,0,0,2216,filler_07,3,bulldozers,1,[],0,21,Yes,This experiment was a cool test of my cognitive ability to string sentences together in rapidity. ,2,1,$1,Male,english,none,"No, none.",Chrome,Mac,900,1440,8.50175,
468,list1,luck,1,0,0,701,filler_07,3,were,2,[],0,21,Yes,This experiment was a cool test of my cognitive ability to string sentences together in rapidity. ,2,1,$1,Male,english,none,"No, none.",Chrome,Mac,900,1440,8.50175,
468,list1,playoffs,1,0,0,966,filler_07,3,removing,3,[],0,21,Yes,This experiment was a cool test of my cognitive ability to string sentences together in rapidity. ,2,1,$1,Male,english,none,"No, none.",Chrome,Mac,900,1440,8.50175,
468,list1,frenzy,1,0,0,667,filler_07,3,rubble,4,[],0,21,Yes,This experiment was a cool test of my cognitive ability to string sentences together in rapidity. ,2,1,$1,Male,english,none,"No, none.",Chrome,Mac,900,1440,8.50175,
468,list1,love,1,0,0,643,filler_07,3,from,5,[],0,21,Yes,This experiment was a cool test of my cognitive ability to string sentences together in rapidity. ,2,1,$1,Male,english,none,"No, none.",Chrome,Mac,900,1440,8.50175,
468,list1,hear,1,0,0,580,filler_07,3,the,6,[],0,21,Yes,This experiment was a cool test of my cognitive ability to string sentences together in rapidity. ,2,1,$1,Male,english,none,"No, none.",Chrome,Mac,900,1440,8.50175,
468,list1,dismissing,1,1,0,1195,filler_07,3,demolished,7,[],0,21,Yes,This experiment was a cool test of my cognitive ability to string sentences together in rapidity. ,2,1,$1,Male,english,none,"No, none.",Chrome,Mac,900,1440,8.50175,
468,list1,tomorrow.,1,0,0,778,filler_07,3,building.,8,[],0,21,Yes,This experiment was a cool test of my cognitive ability to string sentences together in rapidity. ,2,1,$1,Male,english,none,"No, none.",Chrome,Mac,900,1440,8.50175,
468,list1,x-x-x,1,1,0,595,8_cake_managed,4,Michael,0,[],0,21,Yes,This experiment was a cool test of my cognitive ability to string sentences together in rapidity. ,2,1,$1,Male,english,none,"No, none.",Chrome,Mac,900,1440,8.50175,
468,list1,helpful,1,0,0,907,8_cake_managed,4,managed,1,[],0,21,Yes,This experiment was a cool test of my cognitive ability to string sentences together in rapidity. ,2,1,$1,Male,english,none,"No, none.",Chrome,Mac,900,1440,8.50175,
468,list1,sir,1,0,0,663,8_cake_managed,4,to,2,[],0,21,Yes,This experiment was a cool test of my cognitive ability to string sentences together in rapidity. ,2,1,$1,Male,english,none,"No, none.",Chrome,Mac,900,1440,8.50175,
468,list1,norm,1,1,0,905,8_cake_managed,4,bake,3,[],0,21,Yes,This experiment was a cool test of my cognitive ability to string sentences together in rapidity. ,2,1,$1,Male,english,none,"No, none.",Chrome,Mac,900,1440,8.50175,
468,list1,ago,1,1,0,809,8_cake_managed,4,a,4,[],0,21,Yes,This experiment was a cool test of my cognitive ability to string sentences together in rapidity. ,2,1,$1,Male,english,none,"No, none.",Chrome,Mac,900,1440,8.50175,
468,list1,info.,1,0,0,653,8_cake_managed,4,cake.,5,[],0,21,Yes,This experiment was a cool test of my cognitive ability to string sentences together in rapidity. ,2,1,$1,Male,english,none,"No, none.",Chrome,Mac,900,1440,8.50175,
468,list1,cell,1,1,0,1025,8_cake_managed,4,It,6,[],0,21,Yes,This experiment was a cool test of my cognitive ability to string sentences together in rapidity. ,2,1,$1,Male,english,none,"No, none.",Chrome,Mac,900,1440,8.50175,
468,list1,else,1,0,0,1091,8_cake_managed,4,was,7,[],0,21,Yes,This experiment was a cool test of my cognitive ability to string sentences together in rapidity. ,2,1,$1,Male,english,none,"No, none.",Chrome,Mac,900,1440,8.50175,
468,list1,cent,1,0,0,813,8_cake_managed,4,the,8,[],0,21,Yes,This experiment was a cool test of my cognitive ability to string sentences together in rapidity. ,2,1,$1,Male,english,none,"No, none.",Chrome,Mac,900,1440,8.50175,
468,list1,am,1,1,0,561,8_cake_managed,4,best,9,[],0,21,Yes,This experiment was a cool test of my cognitive ability to string sentences together in rapidity. ,2,1,$1,Male,english,none,"No, none.",Chrome,Mac,900,1440,8.50175,
468,list1,sucks,1,1,0,825,8_cake_managed,4,thing,10,[],0,21,Yes,This experiment was a cool test of my cognitive ability to string sentences together in rapidity. ,2,1,$1,Male,english,none,"No, none.",Chrome,Mac,900,1440,8.50175,
468,list1,pre,1,1,0,1239,8_cake_managed,4,at,11,[],0,21,Yes,This experiment was a cool test of my cognitive ability to string sentences together in rapidity. ,2,1,$1,Male,english,none,"No, none.",Chrome,Mac,900,1440,8.50175,
468,list1,nor,1,0,0,618,8_cake_managed,4,the,12,[],0,21,Yes,This experiment was a cool test of my cognitive ability to string sentences together in rapidity. ,2,1,$1,Male,english,none,"No, none.",Chrome,Mac,900,1440,8.50175,
468,list1,geared.,1,0,0,1017,8_cake_managed,4,picnic.,13,[],0,21,Yes,This experiment was a cool test of my cognitive ability to string sentences together in rapidity. ,2,1,$1,Male,english,none,"No, none.",Chrome,Mac,900,1440,8.50175,
468,list1,x-x-x,1,0,1,625,11_cod_doubt,5,I,0,[],0,21,Yes,This experiment was a cool test of my cognitive ability to string sentences together in rapidity. ,2,1,$1,Male,english,none,"No, none.",Chrome,Mac,900,1440,8.50175,
468,list1,worse,1,0,1,873,11_cod_doubt,5,doubt,1,[],0,21,Yes,This experiment was a cool test of my cognitive ability to string sentences together in rapidity. ,2,1,$1,Male,english,none,"No, none.",Chrome,Mac,900,1440,8.50175,
468,list1,hall,1,0,1,563,11_cod_doubt,5,that,2,[],0,21,Yes,This experiment was a cool test of my cognitive ability to string sentences together in rapidity. ,2,1,$1,Male,english,none,"No, none.",Chrome,Mac,900,1440,8.50175,
468,list1,beans,1,1,1,619,11_cod_doubt,5,Sarah,3,[],0,21,Yes,This experiment was a cool test of my cognitive ability to string sentences together in rapidity. ,2,1,$1,Male,english,none,"No, none.",Chrome,Mac,900,1440,8.50175,
468,list1,senate,1,1,1,1027,11_cod_doubt,5,caught,4,[],0,21,Yes,This experiment was a cool test of my cognitive ability to string sentences together in rapidity. ,2,1,$1,Male,english,none,"No, none.",Chrome,Mac,900,1440,8.50175,
468,list1,why,1,1,1,1405,11_cod_doubt,5,a,5,[],0,21,Yes,This experiment was a cool test of my cognitive ability to string sentences together in rapidity. ,2,1,$1,Male,english,none,"No, none.",Chrome,Mac,900,1440,8.50175,
468,list1,beds.,1,1,1,1152,11_cod_doubt,5,cod.,6,[],0,21,Yes,This experiment was a cool test of my cognitive ability to string sentences together in rapidity. ,2,1,$1,Male,english,none,"No, none.",Chrome,Mac,900,1440,8.50175,
468,list1,cent,1,1,1,1147,11_cod_doubt,5,She,7,[],0,21,Yes,This experiment was a cool test of my cognitive ability to string sentences together in rapidity. ,2,1,$1,Male,english,none,"No, none.",Chrome,Mac,900,1440,8.50175,
468,list1,else,1,0,1,1308,11_cod_doubt,5,also,8,[],0,21,Yes,This experiment was a cool test of my cognitive ability to string sentences together in rapidity. ,2,1,$1,Male,english,none,"No, none.",Chrome,Mac,900,1440,8.50175,
468,list1,yeah,1,0,1,566,11_cod_doubt,5,didn't,9,[],0,21,Yes,This experiment was a cool test of my cognitive ability to string sentences together in rapidity. ,2,1,$1,Male,english,none,"No, none.",Chrome,Mac,900,1440,8.50175,
468,list1,nations,1,0,1,897,11_cod_doubt,5,catch,10,[],0,21,Yes,This experiment was a cool test of my cognitive ability to string sentences together in rapidity. ,2,1,$1,Male,english,none,"No, none.",Chrome,Mac,900,1440,8.50175,
468,list1,met,1,0,1,816,11_cod_doubt,5,any,11,[],0,21,Yes,This experiment was a cool test of my cognitive ability to string sentences together in rapidity. ,2,1,$1,Male,english,none,"No, none.",Chrome,Mac,900,1440,8.50175,
468,list1,orient.,1,1,1,971,11_cod_doubt,5,shrimp.,12,[],0,21,Yes,This experiment was a cool test of my cognitive ability to string sentences together in rapidity. ,2,1,$1,Male,english,none,"No, none.",Chrome,Mac,900,1440,8.50175,
468,list1,x-x-x,1,0,1,655,16_house_negated,6,Lisa,0,[],0,21,Yes,This experiment was a cool test of my cognitive ability to string sentences together in rapidity. ,2,1,$1,Male,english,none,"No, none.",Chrome,Mac,900,1440,8.50175,
468,list1,nobody,1,1,1,678,16_house_negated,6,didn't,1,[],0,21,Yes,This experiment was a cool test of my cognitive ability to string sentences together in rapidity. ,2,1,$1,Male,english,none,"No, none.",Chrome,Mac,900,1440,8.50175,
468,list1,miles,1,0,1,684,16_house_negated,6,build,2,[],0,21,Yes,This experiment was a cool test of my cognitive ability to string sentences together in rapidity. ,2,1,$1,Male,english,none,"No, none.",Chrome,Mac,900,1440,8.50175,
468,list1,miss,1,1,1,818,16_house_negated,6,a,3,[],0,21,Yes,This experiment was a cool test of my cognitive ability to string sentences together in rapidity. ,2,1,$1,Male,english,none,"No, none.",Chrome,Mac,900,1440,8.50175,
468,list1,shall,1,1,1,834,16_house_negated,6,house,4,[],0,21,Yes,This experiment was a cool test of my cognitive ability to string sentences together in rapidity. ,2,1,$1,Male,english,none,"No, none.",Chrome,Mac,900,1440,8.50175,
468,list1,glad,1,0,1,665,16_house_negated,6,and,5,[],0,21,Yes,This experiment was a cool test of my cognitive ability to string sentences together in rapidity. ,2,1,$1,Male,english,none,"No, none.",Chrome,Mac,900,1440,8.50175,
468,list1,vs,1,0,1,1362,16_house_negated,6,she,6,[],0,21,Yes,This experiment was a cool test of my cognitive ability to string sentences together in rapidity. ,2,1,$1,Male,english,none,"No, none.",Chrome,Mac,900,1440,8.50175,
468,list1,sec,1,0,1,748,16_house_negated,6,lied,7,[],0,21,Yes,This experiment was a cool test of my cognitive ability to string sentences together in rapidity. ,2,1,$1,Male,english,none,"No, none.",Chrome,Mac,900,1440,8.50175,
468,list1,arms,1,1,1,668,16_house_negated,6,about,8,[],0,21,Yes,This experiment was a cool test of my cognitive ability to string sentences together in rapidity. ,2,1,$1,Male,english,none,"No, none.",Chrome,Mac,900,1440,8.50175,
468,list1,hear,1,1,1,985,16_house_negated,6,several,9,[],0,21,Yes,This experiment was a cool test of my cognitive ability to string sentences together in rapidity. ,2,1,$1,Male,english,none,"No, none.",Chrome,Mac,900,1440,8.50175,
468,list1,yourself,1,1,1,636,16_house_negated,6,other,10,[],0,21,Yes,This experiment was a cool test of my cognitive ability to string sentences together in rapidity. ,2,1,$1,Male,english,none,"No, none.",Chrome,Mac,900,1440,8.50175,
468,list1,accept,1,1,1,735,16_house_negated,6,things,11,[],0,21,Yes,This experiment was a cool test of my cognitive ability to string sentences together in rapidity. ,2,1,$1,Male,english,none,"No, none.",Chrome,Mac,900,1440,8.50175,
468,list1,cent,1,0,1,1185,16_house_negated,6,as,12,[],0,21,Yes,This experiment was a cool test of my cognitive ability to string sentences together in rapidity. ,2,1,$1,Male,english,none,"No, none.",Chrome,Mac,900,1440,8.50175,
468,list1,jack.,1,1,1,757,16_house_negated,6,well.,13,[],0,21,Yes,This experiment was a cool test of my cognitive ability to string sentences together in rapidity. ,2,1,$1,Male,english,none,"No, none.",Chrome,Mac,900,1440,8.50175,
468,list1,x-x-x,1,0,0,545,10_hat_modal,7,Chris,0,[],0,21,Yes,This experiment was a cool test of my cognitive ability to string sentences together in rapidity. ,2,1,$1,Male,english,none,"No, none.",Chrome,Mac,900,1440,8.50175,
468,list1,worse,1,0,0,559,10_hat_modal,7,wants,1,[],0,21,Yes,This experiment was a cool test of my cognitive ability to string sentences together in rapidity. ,2,1,$1,Male,english,none,"No, none.",Chrome,Mac,900,1440,8.50175,
468,list1,ago,1,1,0,487,10_hat_modal,7,to,2,[],0,21,Yes,This experiment was a cool test of my cognitive ability to string sentences together in rapidity. ,2,1,$1,Male,english,none,"No, none.",Chrome,Mac,900,1440,8.50175,
468,list1,hubs,1,0,0,747,10_hat_modal,7,knit,3,[],0,21,Yes,This experiment was a cool test of my cognitive ability to string sentences together in rapidity. ,2,1,$1,Male,english,none,"No, none.",Chrome,Mac,900,1440,8.50175,
468,list1,lake,1,1,0,852,10_hat_modal,7,a,4,[],0,21,Yes,This experiment was a cool test of my cognitive ability to string sentences together in rapidity. ,2,1,$1,Male,english,none,"No, none.",Chrome,Mac,900,1440,8.50175,
468,list1,earl,1,0,0,895,10_hat_modal,7,hat,5,[],0,21,Yes,This experiment was a cool test of my cognitive ability to string sentences together in rapidity. ,2,1,$1,Male,english,none,"No, none.",Chrome,Mac,900,1440,8.50175,
468,list1,sir,1,1,0,558,10_hat_modal,7,and,6,[],0,21,Yes,This experiment was a cool test of my cognitive ability to string sentences together in rapidity. ,2,1,$1,Male,english,none,"No, none.",Chrome,Mac,900,1440,8.50175,
468,list1,vs,1,1,0,1332,10_hat_modal,7,it,7,[],0,21,Yes,This experiment was a cool test of my cognitive ability to string sentences together in rapidity. ,2,1,$1,Male,english,none,"No, none.",Chrome,Mac,900,1440,8.50175,
468,list1,eastern,1,1,0,919,10_hat_modal,7,is,8,[],0,21,Yes,This experiment was a cool test of my cognitive ability to string sentences together in rapidity. ,2,1,$1,Male,english,none,"No, none.",Chrome,Mac,900,1440,8.50175,
468,list1,moon,1,1,0,509,10_hat_modal,7,very,9,[],0,21,Yes,This experiment was a cool test of my cognitive ability to string sentences together in rapidity. ,2,1,$1,Male,english,none,"No, none.",Chrome,Mac,900,1440,8.50175,
468,list1,nova.,1,0,0,867,10_hat_modal,7,colorful.,10,[],0,21,Yes,This experiment was a cool test of my cognitive ability to string sentences together in rapidity. ,2,1,$1,Male,english,none,"No, none.",Chrome,Mac,900,1440,8.50175,
468,list1,x-x-x,1,1,0,683,9_letter_modal,8,Carolyn,0,[],0,21,Yes,This experiment was a cool test of my cognitive ability to string sentences together in rapidity. ,2,1,$1,Male,english,none,"No, none.",Chrome,Mac,900,1440,8.50175,
468,list1,worse,1,0,0,754,9_letter_modal,8,wants,1,[],0,21,Yes,This experiment was a cool test of my cognitive ability to string sentences together in rapidity. ,2,1,$1,Male,english,none,"No, none.",Chrome,Mac,900,1440,8.50175,
468,list1,cent,1,1,0,546,9_letter_modal,8,to,2,[],0,21,Yes,This experiment was a cool test of my cognitive ability to string sentences together in rapidity. ,2,1,$1,Male,english,none,"No, none.",Chrome,Mac,900,1440,8.50175,
468,list1,yards,1,1,0,542,9_letter_modal,8,write,3,[],0,21,Yes,This experiment was a cool test of my cognitive ability to string sentences together in rapidity. ,2,1,$1,Male,english,none,"No, none.",Chrome,Mac,900,1440,8.50175,
468,list1,sir,1,0,0,511,9_letter_modal,8,a,4,[],0,21,Yes,This experiment was a cool test of my cognitive ability to string sentences together in rapidity. ,2,1,$1,Male,english,none,"No, none.",Chrome,Mac,900,1440,8.50175,
468,list1,prices,1,1,0,589,9_letter_modal,8,letter,5,[],0,21,Yes,This experiment was a cool test of my cognitive ability to string sentences together in rapidity. ,2,1,$1,Male,english,none,"No, none.",Chrome,Mac,900,1440,8.50175,
468,list1,fear,1,1,0,592,9_letter_modal,8,to,6,[],0,21,Yes,This experiment was a cool test of my cognitive ability to string sentences together in rapidity. ,2,1,$1,Male,english,none,"No, none.",Chrome,Mac,900,1440,8.50175,
468,list1,ago,1,0,0,926,9_letter_modal,8,her,7,[],0,21,Yes,This experiment was a cool test of my cognitive ability to string sentences together in rapidity. ,2,1,$1,Male,english,none,"No, none.",Chrome,Mac,900,1440,8.50175,
468,list1,awesome,1,0,0,786,9_letter_modal,8,parents,8,[],0,21,Yes,This experiment was a cool test of my cognitive ability to string sentences together in rapidity. ,2,1,$1,Male,english,none,"No, none.",Chrome,Mac,900,1440,8.50175,
468,list1,cool,1,1,0,431,9_letter_modal,8,and,9,[],0,21,Yes,This experiment was a cool test of my cognitive ability to string sentences together in rapidity. ,2,1,$1,Male,english,none,"No, none.",Chrome,Mac,900,1440,8.50175,
468,list1,jack,1,0,0,811,9_letter_modal,8,it,10,[],0,21,Yes,This experiment was a cool test of my cognitive ability to string sentences together in rapidity. ,2,1,$1,Male,english,none,"No, none.",Chrome,Mac,900,1440,8.50175,
468,list1,wars,1,1,0,1506,9_letter_modal,8,arrives,11,[],0,21,Yes,This experiment was a cool test of my cognitive ability to string sentences together in rapidity. ,2,1,$1,Male,english,none,"No, none.",Chrome,Mac,900,1440,8.50175,
468,list1,china,1,1,0,581,9_letter_modal,8,three,12,[],0,21,Yes,This experiment was a cool test of my cognitive ability to string sentences together in rapidity. ,2,1,$1,Male,english,none,"No, none.",Chrome,Mac,900,1440,8.50175,
468,list1,pre,1,1,0,863,9_letter_modal,8,days,13,[],0,21,Yes,This experiment was a cool test of my cognitive ability to string sentences together in rapidity. ,2,1,$1,Male,english,none,"No, none.",Chrome,Mac,900,1440,8.50175,
468,list1,anti,1,0,0,646,9_letter_modal,8,after,14,[],0,21,Yes,This experiment was a cool test of my cognitive ability to string sentences together in rapidity. ,2,1,$1,Male,english,none,"No, none.",Chrome,Mac,900,1440,8.50175,
468,list1,yeah,1,1,0,769,9_letter_modal,8,she,15,[],0,21,Yes,This experiment was a cool test of my cognitive ability to string sentences together in rapidity. ,2,1,$1,Male,english,none,"No, none.",Chrome,Mac,900,1440,8.50175,
468,list1,bay,1,0,0,581,9_letter_modal,8,sends,16,[],0,21,Yes,This experiment was a cool test of my cognitive ability to string sentences together in rapidity. ,2,1,$1,Male,english,none,"No, none.",Chrome,Mac,900,1440,8.50175,
468,list1,seem.,1,1,0,568,9_letter_modal,8,it.,17,[],0,21,Yes,This experiment was a cool test of my cognitive ability to string sentences together in rapidity. ,2,1,$1,Male,english,none,"No, none.",Chrome,Mac,900,1440,8.50175,
468,list1,x-x-x,1,0,0,514,filler_11,9,The,0,[],0,21,Yes,This experiment was a cool test of my cognitive ability to string sentences together in rapidity. ,2,1,$1,Male,english,none,"No, none.",Chrome,Mac,900,1440,8.50175,
468,list1,accurately,1,0,0,688,filler_11,9,university,1,[],0,21,Yes,This experiment was a cool test of my cognitive ability to string sentences together in rapidity. ,2,1,$1,Male,english,none,"No, none.",Chrome,Mac,900,1440,8.50175,
468,list1,okay,1,0,0,1244,filler_11,9,town,2,[],0,21,Yes,This experiment was a cool test of my cognitive ability to string sentences together in rapidity. ,2,1,$1,Male,english,none,"No, none.",Chrome,Mac,900,1440,8.50175,
468,list1,synthetic,1,0,0,959,filler_11,9,attracted,3,[],0,21,Yes,This experiment was a cool test of my cognitive ability to string sentences together in rapidity. ,2,1,$1,Male,english,none,"No, none.",Chrome,Mac,900,1440,8.50175,
468,list1,hole,1,1,0,820,filler_11,9,lots,4,[],0,21,Yes,This experiment was a cool test of my cognitive ability to string sentences together in rapidity. ,2,1,$1,Male,english,none,"No, none.",Chrome,Mac,900,1440,8.50175,
468,list1,sir,1,0,0,391,filler_11,9,of,5,[],0,21,Yes,This experiment was a cool test of my cognitive ability to string sentences together in rapidity. ,2,1,$1,Male,english,none,"No, none.",Chrome,Mac,900,1440,8.50175,
468,list1,withdraw,1,1,0,531,filler_11,9,tourists,6,[],0,21,Yes,This experiment was a cool test of my cognitive ability to string sentences together in rapidity. ,2,1,$1,Male,english,none,"No, none.",Chrome,Mac,900,1440,8.50175,
468,list1,cancer,1,0,0,744,filler_11,9,during,7,[],0,21,Yes,This experiment was a cool test of my cognitive ability to string sentences together in rapidity. ,2,1,$1,Male,english,none,"No, none.",Chrome,Mac,900,1440,8.50175,
468,list1,hate,1,0,0,713,filler_11,9,the,8,[],0,21,Yes,This experiment was a cool test of my cognitive ability to string sentences together in rapidity. ,2,1,$1,Male,english,none,"No, none.",Chrome,Mac,900,1440,8.50175,
468,list1,seemed.,1,1,0,849,filler_11,9,summer.,9,[],0,21,Yes,This experiment was a cool test of my cognitive ability to string sentences together in rapidity. ,2,1,$1,Male,english,none,"No, none.",Chrome,Mac,900,1440,8.50175,
468,list1,x-x-x,1,0,0,460,filler_10,10,The,0,[],0,21,Yes,This experiment was a cool test of my cognitive ability to string sentences together in rapidity. ,2,1,$1,Male,english,none,"No, none.",Chrome,Mac,900,1440,8.50175,
468,list1,encountered,1,0,0,880,filler_10,10,documentary,1,[],0,21,Yes,This experiment was a cool test of my cognitive ability to string sentences together in rapidity. ,2,1,$1,Male,english,none,"No, none.",Chrome,Mac,900,1440,8.50175,
468,list1,sir,1,1,0,1398,filler_10,10,did,2,[],0,21,Yes,This experiment was a cool test of my cognitive ability to string sentences together in rapidity. ,2,1,$1,Male,english,none,"No, none.",Chrome,Mac,900,1440,8.50175,
468,list1,cent,1,0,0,417,filler_10,10,not,3,[],0,21,Yes,This experiment was a cool test of my cognitive ability to string sentences together in rapidity. ,2,1,$1,Male,english,none,"No, none.",Chrome,Mac,900,1440,8.50175,
468,list1,practicing,1,0,0,925,filler_10,10,accurately,4,[],0,21,Yes,This experiment was a cool test of my cognitive ability to string sentences together in rapidity. ,2,1,$1,Male,english,none,"No, none.",Chrome,Mac,900,1440,8.50175,
468,list1,chilled,1,1,0,741,filler_10,10,portray,5,[],0,21,Yes,This experiment was a cool test of my cognitive ability to string sentences together in rapidity. ,2,1,$1,Male,english,none,"No, none.",Chrome,Mac,900,1440,8.50175,
468,list1,eat,1,0,0,708,filler_10,10,the,6,[],0,21,Yes,This experiment was a cool test of my cognitive ability to string sentences together in rapidity. ,2,1,$1,Male,english,none,"No, none.",Chrome,Mac,900,1440,8.50175,
468,list1,anyway,1,0,0,607,filler_10,10,events,7,[],0,21,Yes,This experiment was a cool test of my cognitive ability to string sentences together in rapidity. ,2,1,$1,Male,english,none,"No, none.",Chrome,Mac,900,1440,8.50175,
468,list1,scholarship,1,0,0,956,filler_10,10,surrounding,8,[],0,21,Yes,This experiment was a cool test of my cognitive ability to string sentences together in rapidity. ,2,1,$1,Male,english,none,"No, none.",Chrome,Mac,900,1440,8.50175,
468,list1,feel,1,0,0,500,filler_10,10,the,9,[],0,21,Yes,This experiment was a cool test of my cognitive ability to string sentences together in rapidity. ,2,1,$1,Male,english,none,"No, none.",Chrome,Mac,900,1440,8.50175,
468,list1,certainly,1,0,0,847,filler_10,10,political,10,[],0,21,Yes,This experiment was a cool test of my cognitive ability to string sentences together in rapidity. ,2,1,$1,Male,english,none,"No, none.",Chrome,Mac,900,1440,8.50175,
468,list1,possess.,1,0,0,1148,filler_10,10,scandal.,11,[],0,21,Yes,This experiment was a cool test of my cognitive ability to string sentences together in rapidity. ,2,1,$1,Male,english,none,"No, none.",Chrome,Mac,900,1440,8.50175,
468,list1,x-x-x,1,0,0,565,12_ticket_doubt,11,I,0,[],0,21,Yes,This experiment was a cool test of my cognitive ability to string sentences together in rapidity. ,2,1,$1,Male,english,none,"No, none.",Chrome,Mac,900,1440,8.50175,
468,list1,worse,1,1,0,643,12_ticket_doubt,11,doubt,1,[],0,21,Yes,This experiment was a cool test of my cognitive ability to string sentences together in rapidity. ,2,1,$1,Male,english,none,"No, none.",Chrome,Mac,900,1440,8.50175,
468,list1,hall,1,1,0,985,12_ticket_doubt,11,that,2,[],0,21,Yes,This experiment was a cool test of my cognitive ability to string sentences together in rapidity. ,2,1,$1,Male,english,none,"No, none.",Chrome,Mac,900,1440,8.50175,
468,list1,shower,1,1,0,799,12_ticket_doubt,11,Thomas,3,[],0,21,Yes,This experiment was a cool test of my cognitive ability to string sentences together in rapidity. ,2,1,$1,Male,english,none,"No, none.",Chrome,Mac,900,1440,8.50175,
468,list1,marina,1,1,0,1380,12_ticket_doubt,11,booked,4,[],0,21,Yes,This experiment was a cool test of my cognitive ability to string sentences together in rapidity. ,2,1,$1,Male,english,none,"No, none.",Chrome,Mac,900,1440,8.50175,
468,list1,miss,0,1,0,1027,12_ticket_doubt,11,a,5,[],0,21,Yes,This experiment was a cool test of my cognitive ability to string sentences together in rapidity. ,2,1,$1,Male,english,none,"No, none.",Chrome,Mac,900,1440,8.50175,
468,list1,beings,1,0,0,956,12_ticket_doubt,11,ticket,6,[],0,21,Yes,This experiment was a cool test of my cognitive ability to string sentences together in rapidity. ,2,1,$1,Male,english,none,"No, none.",Chrome,Mac,900,1440,8.50175,
468,list1,mind,1,1,0,1449,12_ticket_doubt,11,in,7,[],0,21,Yes,This experiment was a cool test of my cognitive ability to string sentences together in rapidity. ,2,1,$1,Male,english,none,"No, none.",Chrome,Mac,900,1440,8.50175,
468,list1,android.,1,0,0,876,12_ticket_doubt,11,advance.,8,[],0,21,Yes,This experiment was a cool test of my cognitive ability to string sentences together in rapidity. ,2,1,$1,Male,english,none,"No, none.",Chrome,Mac,900,1440,8.50175,
468,list1,died,1,0,0,616,12_ticket_doubt,11,It,9,[],0,21,Yes,This experiment was a cool test of my cognitive ability to string sentences together in rapidity. ,2,1,$1,Male,english,none,"No, none.",Chrome,Mac,900,1440,8.50175,
468,list1,worry,1,0,0,712,12_ticket_doubt,11,was,10,[],0,21,Yes,This experiment was a cool test of my cognitive ability to string sentences together in rapidity. ,2,1,$1,Male,english,none,"No, none.",Chrome,Mac,900,1440,8.50175,
468,list1,yeah,1,1,0,1242,12_ticket_doubt,11,much,11,[],0,21,Yes,This experiment was a cool test of my cognitive ability to string sentences together in rapidity. ,2,1,$1,Male,english,none,"No, none.",Chrome,Mac,900,1440,8.50175,
468,list1,lips,1,0,0,585,12_ticket_doubt,11,cheaper,12,[],0,21,Yes,This experiment was a cool test of my cognitive ability to string sentences together in rapidity. ,2,1,$1,Male,english,none,"No, none.",Chrome,Mac,900,1440,8.50175,
468,list1,trip,1,0,0,864,12_ticket_doubt,11,than,13,[],0,21,Yes,This experiment was a cool test of my cognitive ability to string sentences together in rapidity. ,2,1,$1,Male,english,none,"No, none.",Chrome,Mac,900,1440,8.50175,
468,list1,app,1,0,0,597,12_ticket_doubt,11,he,14,[],0,21,Yes,This experiment was a cool test of my cognitive ability to string sentences together in rapidity. ,2,1,$1,Male,english,none,"No, none.",Chrome,Mac,900,1440,8.50175,
468,list1,advice.,1,1,0,624,12_ticket_doubt,11,expected.,15,[],0,21,Yes,This experiment was a cool test of my cognitive ability to string sentences together in rapidity. ,2,1,$1,Male,english,none,"No, none.",Chrome,Mac,900,1440,8.50175,
468,list1,x-x-x,1,0,0,528,filler_05,12,The,0,[],0,21,Yes,This experiment was a cool test of my cognitive ability to string sentences together in rapidity. ,2,1,$1,Male,english,none,"No, none.",Chrome,Mac,900,1440,8.50175,
468,list1,fail,1,0,0,641,filler_05,12,band,1,[],0,21,Yes,This experiment was a cool test of my cognitive ability to string sentences together in rapidity. ,2,1,$1,Male,english,none,"No, none.",Chrome,Mac,900,1440,8.50175,
468,list1,hill,1,1,0,766,filler_05,12,had,2,[],0,21,Yes,This experiment was a cool test of my cognitive ability to string sentences together in rapidity. ,2,1,$1,Male,english,none,"No, none.",Chrome,Mac,900,1440,8.50175,
468,list1,app,1,1,0,762,filler_05,12,to,3,[],0,21,Yes,This experiment was a cool test of my cognitive ability to string sentences together in rapidity. ,2,1,$1,Male,english,none,"No, none.",Chrome,Mac,900,1440,8.50175,
468,list1,yeah,1,0,0,764,filler_05,12,set,4,[],0,21,Yes,This experiment was a cool test of my cognitive ability to string sentences together in rapidity. ,2,1,$1,Male,english,none,"No, none.",Chrome,Mac,900,1440,8.50175,
468,list1,ago,1,0,0,669,filler_05,12,up,5,[],0,21,Yes,This experiment was a cool test of my cognitive ability to string sentences together in rapidity. ,2,1,$1,Male,english,none,"No, none.",Chrome,Mac,900,1440,8.50175,
468,list1,knows,1,0,0,844,filler_05,12,their,6,[],0,21,Yes,This experiment was a cool test of my cognitive ability to string sentences together in rapidity. ,2,1,$1,Male,english,none,"No, none.",Chrome,Mac,900,1440,8.50175,
468,list1,goes,1,0,0,776,filler_05,12,own,7,[],0,21,Yes,This experiment was a cool test of my cognitive ability to string sentences together in rapidity. ,2,1,$1,Male,english,none,"No, none.",Chrome,Mac,900,1440,8.50175,
468,list1,concluded,1,0,0,1128,filler_05,12,equipment,8,[],0,21,Yes,This experiment was a cool test of my cognitive ability to string sentences together in rapidity. ,2,1,$1,Male,english,none,"No, none.",Chrome,Mac,900,1440,8.50175,
468,list1,minute,1,1,0,741,filler_05,12,before,9,[],0,21,Yes,This experiment was a cool test of my cognitive ability to string sentences together in rapidity. ,2,1,$1,Male,english,none,"No, none.",Chrome,Mac,900,1440,8.50175,
468,list1,mom,1,0,0,609,filler_05,12,the,10,[],0,21,Yes,This experiment was a cool test of my cognitive ability to string sentences together in rapidity. ,2,1,$1,Male,english,none,"No, none.",Chrome,Mac,900,1440,8.50175,
468,list1,imagine.,1,1,0,712,filler_05,12,concert.,11,[],0,21,Yes,This experiment was a cool test of my cognitive ability to string sentences together in rapidity. ,2,1,$1,Male,english,none,"No, none.",Chrome,Mac,900,1440,8.50175,
468,list1,x-x-x,1,1,1,765,5_shirt_failed,13,Mary,0,[],0,21,Yes,This experiment was a cool test of my cognitive ability to string sentences together in rapidity. ,2,1,$1,Male,english,none,"No, none.",Chrome,Mac,900,1440,8.50175,
468,list1,senate,1,1,1,1424,5_shirt_failed,13,failed,1,[],0,21,Yes,This experiment was a cool test of my cognitive ability to string sentences together in rapidity. ,2,1,$1,Male,english,none,"No, none.",Chrome,Mac,900,1440,8.50175,
468,list1,god,1,0,1,842,5_shirt_failed,13,to,2,[],0,21,Yes,This experiment was a cool test of my cognitive ability to string sentences together in rapidity. ,2,1,$1,Male,english,none,"No, none.",Chrome,Mac,900,1440,8.50175,
468,list1,yeah,1,1,1,703,5_shirt_failed,13,find,3,[],0,21,Yes,This experiment was a cool test of my cognitive ability to string sentences together in rapidity. ,2,1,$1,Male,english,none,"No, none.",Chrome,Mac,900,1440,8.50175,
468,list1,am,1,1,1,642,5_shirt_failed,13,a,4,[],0,21,Yes,This experiment was a cool test of my cognitive ability to string sentences together in rapidity. ,2,1,$1,Male,english,none,"No, none.",Chrome,Mac,900,1440,8.50175,
468,list1,sucks,1,1,1,793,5_shirt_failed,13,shirt,5,[],0,21,Yes,This experiment was a cool test of my cognitive ability to string sentences together in rapidity. ,2,1,$1,Male,english,none,"No, none.",Chrome,Mac,900,1440,8.50175,
468,list1,same,1,0,1,663,5_shirt_failed,13,at,6,[],0,21,Yes,This experiment was a cool test of my cognitive ability to string sentences together in rapidity. ,2,1,$1,Male,english,none,"No, none.",Chrome,Mac,900,1440,8.50175,
468,list1,hear,1,1,1,806,5_shirt_failed,13,the,7,[],0,21,Yes,This experiment was a cool test of my cognitive ability to string sentences together in rapidity. ,2,1,$1,Male,english,none,"No, none.",Chrome,Mac,900,1440,8.50175,
468,list1,faced.,1,0,1,670,5_shirt_failed,13,store.,8,[],0,21,Yes,This experiment was a cool test of my cognitive ability to string sentences together in rapidity. ,2,1,$1,Male,english,none,"No, none.",Chrome,Mac,900,1440,8.50175,
468,list1,cent,1,1,1,809,5_shirt_failed,13,She,9,[],0,21,Yes,This experiment was a cool test of my cognitive ability to string sentences together in rapidity. ,2,1,$1,Male,english,none,"No, none.",Chrome,Mac,900,1440,8.50175,
468,list1,worse,1,0,1,732,5_shirt_failed,13,didn't,10,[],0,21,Yes,This experiment was a cool test of my cognitive ability to string sentences together in rapidity. ,2,1,$1,Male,english,none,"No, none.",Chrome,Mac,900,1440,8.50175,
468,list1,premier,1,1,1,808,5_shirt_failed,13,manage,11,[],0,21,Yes,This experiment was a cool test of my cognitive ability to string sentences together in rapidity. ,2,1,$1,Male,english,none,"No, none.",Chrome,Mac,900,1440,8.50175,
468,list1,dad,1,0,1,554,5_shirt_failed,13,to,12,[],0,21,Yes,This experiment was a cool test of my cognitive ability to string sentences together in rapidity. ,2,1,$1,Male,english,none,"No, none.",Chrome,Mac,900,1440,8.50175,
468,list1,mom,1,0,1,595,5_shirt_failed,13,get,13,[],0,21,Yes,This experiment was a cool test of my cognitive ability to string sentences together in rapidity. ,2,1,$1,Male,english,none,"No, none.",Chrome,Mac,900,1440,8.50175,
468,list1,ago,1,0,1,806,5_shirt_failed,13,any,14,[],0,21,Yes,This experiment was a cool test of my cognitive ability to string sentences together in rapidity. ,2,1,$1,Male,english,none,"No, none.",Chrome,Mac,900,1440,8.50175,
468,list1,feels,1,1,1,1038,5_shirt_failed,13,other,15,[],0,21,Yes,This experiment was a cool test of my cognitive ability to string sentences together in rapidity. ,2,1,$1,Male,english,none,"No, none.",Chrome,Mac,900,1440,8.50175,
468,list1,glad,1,0,1,916,5_shirt_failed,13,nice,16,[],0,21,Yes,This experiment was a cool test of my cognitive ability to string sentences together in rapidity. ,2,1,$1,Male,english,none,"No, none.",Chrome,Mac,900,1440,8.50175,
468,list1,opposed,1,1,1,754,5_shirt_failed,13,clothes,17,[],0,21,Yes,This experiment was a cool test of my cognitive ability to string sentences together in rapidity. ,2,1,$1,Male,english,none,"No, none.",Chrome,Mac,900,1440,8.50175,
468,list1,global.,1,0,1,711,5_shirt_failed,13,either.,18,[],0,21,Yes,This experiment was a cool test of my cognitive ability to string sentences together in rapidity. ,2,1,$1,Male,english,none,"No, none.",Chrome,Mac,900,1440,8.50175,
468,list1,x-x-x,1,0,1,587,13_bed_know,14,I,0,[],0,21,Yes,This experiment was a cool test of my cognitive ability to string sentences together in rapidity. ,2,1,$1,Male,english,none,"No, none.",Chrome,Mac,900,1440,8.50175,
468,list1,jack,1,1,1,1206,13_bed_know,14,know,1,[],0,21,Yes,This experiment was a cool test of my cognitive ability to string sentences together in rapidity. ,2,1,$1,Male,english,none,"No, none.",Chrome,Mac,900,1440,8.50175,
468,list1,push,1,0,1,740,13_bed_know,14,that,2,[],0,21,Yes,This experiment was a cool test of my cognitive ability to string sentences together in rapidity. ,2,1,$1,Male,english,none,"No, none.",Chrome,Mac,900,1440,8.50175,
468,list1,cape,1,1,1,1134,13_bed_know,14,Luke,3,[],0,21,Yes,This experiment was a cool test of my cognitive ability to string sentences together in rapidity. ,2,1,$1,Male,english,none,"No, none.",Chrome,Mac,900,1440,8.50175,
468,list1,bureau,1,0,1,652,13_bed_know,14,bought,4,[],0,21,Yes,This experiment was a cool test of my cognitive ability to string sentences together in rapidity. ,2,1,$1,Male,english,none,"No, none.",Chrome,Mac,900,1440,8.50175,
468,list1,yeah,1,1,1,829,13_bed_know,14,a,5,[],0,21,Yes,This experiment was a cool test of my cognitive ability to string sentences together in rapidity. ,2,1,$1,Male,english,none,"No, none.",Chrome,Mac,900,1440,8.50175,
468,list1,sir.,1,0,1,913,13_bed_know,14,bed.,6,[],0,21,Yes,This experiment was a cool test of my cognitive ability to string sentences together in rapidity. ,2,1,$1,Male,english,none,"No, none.",Chrome,Mac,900,1440,8.50175,
468,list1,died,1,0,1,1081,13_bed_know,14,He,7,[],0,21,Yes,This experiment was a cool test of my cognitive ability to string sentences together in rapidity. ,2,1,$1,Male,english,none,"No, none.",Chrome,Mac,900,1440,8.50175,
468,list1,miss,0,1,1,1359,13_bed_know,14,also,8,[],0,21,Yes,This experiment was a cool test of my cognitive ability to string sentences together in rapidity. ,2,1,$1,Male,english,none,"No, none.",Chrome,Mac,900,1440,8.50175,
468,list1,kid,1,0,1,778,13_bed_know,14,got,9,[],0,21,Yes,This experiment was a cool test of my cognitive ability to string sentences together in rapidity. ,2,1,$1,Male,english,none,"No, none.",Chrome,Mac,900,1440,8.50175,
468,list1,app,1,1,1,1041,13_bed_know,14,a,10,[],0,21,Yes,This experiment was a cool test of my cognitive ability to string sentences together in rapidity. ,2,1,$1,Male,english,none,"No, none.",Chrome,Mac,900,1440,8.50175,
468,list1,nor,1,1,1,912,13_bed_know,14,new,11,[],0,21,Yes,This experiment was a cool test of my cognitive ability to string sentences together in rapidity. ,2,1,$1,Male,english,none,"No, none.",Chrome,Mac,900,1440,8.50175,
468,list1,happens.,1,1,1,1169,13_bed_know,14,dresser.,12,[],0,21,Yes,This experiment was a cool test of my cognitive ability to string sentences together in rapidity. ,2,1,$1,Male,english,none,"No, none.",Chrome,Mac,900,1440,8.50175,
468,list1,x-x-x,1,0,1,632,2_car_affirmative,15,Lucy,0,[],0,21,Yes,This experiment was a cool test of my cognitive ability to string sentences together in rapidity. ,2,1,$1,Male,english,none,"No, none.",Chrome,Mac,900,1440,8.50175,
468,list1,nice,1,0,1,780,2_car_affirmative,15,has,1,[],0,21,Yes,This experiment was a cool test of my cognitive ability to string sentences together in rapidity. ,2,1,$1,Male,english,none,"No, none.",Chrome,Mac,900,1440,8.50175,
468,list1,sir,1,1,1,1007,2_car_affirmative,15,a,2,[],0,21,Yes,This experiment was a cool test of my cognitive ability to string sentences together in rapidity. ,2,1,$1,Male,english,none,"No, none.",Chrome,Mac,900,1440,8.50175,
468,list1,ago,1,0,1,615,2_car_affirmative,15,car,3,[],0,21,Yes,This experiment was a cool test of my cognitive ability to string sentences together in rapidity. ,2,1,$1,Male,english,none,"No, none.",Chrome,Mac,900,1440,8.50175,
468,list1,ways,1,1,1,746,2_car_affirmative,15,and,4,[],0,21,Yes,This experiment was a cool test of my cognitive ability to string sentences together in rapidity. ,2,1,$1,Male,english,none,"No, none.",Chrome,Mac,900,1440,8.50175,
468,list1,yeah,1,1,1,454,2_car_affirmative,15,she,5,[],0,21,Yes,This experiment was a cool test of my cognitive ability to string sentences together in rapidity. ,2,1,$1,Male,english,none,"No, none.",Chrome,Mac,900,1440,8.50175,
468,list1,ben,1,0,1,861,2_car_affirmative,15,loves,6,[],0,21,Yes,This experiment was a cool test of my cognitive ability to string sentences together in rapidity. ,2,1,$1,Male,english,none,"No, none.",Chrome,Mac,900,1440,8.50175,
468,list1,pre,1,1,1,588,2_car_affirmative,15,to,7,[],0,21,Yes,This experiment was a cool test of my cognitive ability to string sentences together in rapidity. ,2,1,$1,Male,english,none,"No, none.",Chrome,Mac,900,1440,8.50175,
468,list1,shall,1,0,1,617,2_car_affirmative,15,go,8,[],0,21,Yes,This experiment was a cool test of my cognitive ability to string sentences together in rapidity. ,2,1,$1,Male,english,none,"No, none.",Chrome,Mac,900,1440,8.50175,
468,list1,glad,1,1,1,671,2_car_affirmative,15,on,9,[],0,21,Yes,This experiment was a cool test of my cognitive ability to string sentences together in rapidity. ,2,1,$1,Male,english,none,"No, none.",Chrome,Mac,900,1440,8.50175,
468,list1,tetrapods.,1,0,1,760,2_car_affirmative,15,roadtrips.,10,[],0,21,Yes,This experiment was a cool test of my cognitive ability to string sentences together in rapidity. ,2,1,$1,Male,english,none,"No, none.",Chrome,Mac,900,1440,8.50175,
468,list1,x-x-x,1,0,0,545,filler_00,16,The,0,[],0,21,Yes,This experiment was a cool test of my cognitive ability to string sentences together in rapidity. ,2,1,$1,Male,english,none,"No, none.",Chrome,Mac,900,1440,8.50175,
468,list1,hauled,1,1,0,1066,filler_00,16,vacant,1,[],0,21,Yes,This experiment was a cool test of my cognitive ability to string sentences together in rapidity. ,2,1,$1,Male,english,none,"No, none.",Chrome,Mac,900,1440,8.50175,
468,list1,diseases,1,0,0,654,filler_00,16,building,2,[],0,21,Yes,This experiment was a cool test of my cognitive ability to string sentences together in rapidity. ,2,1,$1,Male,english,none,"No, none.",Chrome,Mac,900,1440,8.50175,
468,list1,marketers,1,1,0,1143,filler_00,16,overlooks,3,[],0,21,Yes,This experiment was a cool test of my cognitive ability to string sentences together in rapidity. ,2,1,$1,Male,english,none,"No, none.",Chrome,Mac,900,1440,8.50175,
468,list1,bill,1,0,0,739,filler_00,16,the,4,[],0,21,Yes,This experiment was a cool test of my cognitive ability to string sentences together in rapidity. ,2,1,$1,Male,english,none,"No, none.",Chrome,Mac,900,1440,8.50175,
468,list1,shall,1,1,0,862,filler_00,16,river,5,[],0,21,Yes,This experiment was a cool test of my cognitive ability to string sentences together in rapidity. ,2,1,$1,Male,english,none,"No, none.",Chrome,Mac,900,1440,8.50175,
468,list1,nice,1,1,0,733,filler_00,16,that,6,[],0,21,Yes,This experiment was a cool test of my cognitive ability to string sentences together in rapidity. ,2,1,$1,Male,english,none,"No, none.",Chrome,Mac,900,1440,8.50175,
468,list1,candy,1,0,0,1438,filler_00,16,winds,7,[],0,21,Yes,This experiment was a cool test of my cognitive ability to string sentences together in rapidity. ,2,1,$1,Male,english,none,"No, none.",Chrome,Mac,900,1440,8.50175,
468,list1,teacher,1,1,0,1193,filler_00,16,through,8,[],0,21,Yes,This experiment was a cool test of my cognitive ability to string sentences together in rapidity. ,2,1,$1,Male,english,none,"No, none.",Chrome,Mac,900,1440,8.50175,
468,list1,lady.,1,0,0,791,filler_00,16,town.,9,[],0,21,Yes,This experiment was a cool test of my cognitive ability to string sentences together in rapidity. ,2,1,$1,Male,english,none,"No, none.",Chrome,Mac,900,1440,8.50175,
